
time;ax;ay;az;wx;wy;wz;Latitude;Longitude;Speed (m/s);Altitude (m);
0,094115;0,0201;0,0221;0,1067;-0,0018;-0,0043;0,0043;0,00000000;0,00000000;0,00000000;552,70001221;
0,194683;0,0195;0,0222;0,2263;0,0024;-0,0049;0,0037;37,58760650;36,80642250;0,00000000;552,70001221;
0,294812;-0,0592;0,0778;0,0563;0,0067;-0,0031;0,0037;37,58760650;36,80642250;0,00000000;552,70001221;
0,395959;0,0138;-0,0241;-0,0456;0,0116;-0,0043;0,0043;37,58760650;36,80642250;0,00000000;552,70001221;
0,495432;0,0365;-0,0624;-0,0157;0,0110;-0,0024;0,0037;37,58760650;36,80642250;0,00000000;552,70001221;
0,596674;0,0069;-0,0555;-0,1317;0,0104;0,0006;0,0037;37,58760650;36,80642250;0,00000000;552,70001221;
0,697312;0,0759;-0,0714;-0,0135;0,0067;0,0000;0,0043;37,58760650;36,80642250;0,00000000;552,70001221;
0,797978;0,0973;-0,0699;-0,0134;0,0031;0,0012;0,0055;37,58760650;36,80642250;0,00000000;552,70001221;
0,898078;-0,0143;-0,0299;0,0367;0,0018;0,0049;0,0055;37,58760650;36,80642250;0,00000000;552,70001221;
0,998819;0,1466;-0,0519;-0,0162;0,0018;0,0018;0,0049;37,58760650;36,80642250;0,00000000;552,70001221;
1,098791;0,0039;-0,0394;-0,0380;0,0043;0,0024;0,0073;37,58760650;36,80642250;0,00000000;552,70001221;
1,198369;0,0472;-0,0706;-0,0762;0,0037;0,0031;0,0067;37,58760650;36,80642250;0,00000000;552,70001221;
1,298869;-0,1128;-0,0695;0,0152;0,0067;0,0012;0,0055;37,58760650;36,80642250;0,00000000;552,70001221;
1,402746;-0,1673;-0,0589;0,0733;0,0098;0,0012;0,0079;37,58760650;36,80642250;0,00000000;552,70001221;
1,499725;-0,0969;-0,0546;0,0659;0,0116;0,0000;0,0061;37,58760650;36,80642250;0,00000000;562,00000000;
1,600081;-0,0254;-0,0746;-0,0276;0,0110;0,0006;0,0067;37,58770833;36,80758167;3,31789947;562,00000000;
1,701793;0,0903;-0,1469;-0,0921;0,0098;0,0006;0,0073;37,58770833;36,80758167;3,31789947;562,00000000;
1,801216;-0,0370;-0,0569;-0,1272;0,0061;0,0012;0,0073;37,58770833;36,80758167;3,31789947;562,00000000;
1,901731;0,0509;-0,0644;-0,1384;0,0061;0,0000;0,0067;37,58770833;36,80758167;3,31789947;562,00000000;
2,002719;0,0694;-0,0438;0,0556;0,0073;0,0000;0,0098;37,58770833;36,80758167;3,31789947;562,00000000;
2,102691;-0,2219;-0,0567;-0,2653;0,0061;0,0024;0,0079;37,58770833;36,80758167;3,31789947;562,00000000;
2,202445;0,0910;0,0333;-0,0878;0,0073;0,0031;0,0073;37,58770833;36,80758167;3,31789947;562,00000000;
2,303317;0,0865;-0,0158;-0,1190;0,0061;0,0024;0,0098;37,58770833;36,80758167;3,31789947;562,00000000;
2,403405;-0,1497;-0,1676;-0,1955;0,0073;0,0006;0,0073;37,58770833;36,80758167;3,31789947;556,00000000;
2,504245;-0,0416;-0,0866;-0,1738;0,0079;-0,0012;0,0067;37,58774167;36,80774833;3,69416142;556,00000000;
2,604589;0,0078;-0,0476;-0,1280;0,0073;-0,0043;0,0086;37,58774167;36,80774833;3,69416142;556,00000000;
2,704630;0,0131;-0,1647;-0,1639;0,0067;-0,0018;0,0110;37,58774167;36,80774833;3,69416142;556,00000000;
2,804960;-0,1907;0,0115;-0,3487;0,0079;0,0006;0,0086;37,58774167;36,80774833;3,69416142;556,00000000;
2,904937;-0,0766;-0,0388;-0,3704;0,0067;0,0031;0,0092;37,58774167;36,80774833;3,69416142;556,00000000;
3,006016;0,1311;0,0193;-0,2652;0,0061;0,0024;0,0098;37,58774167;36,80774833;3,69416142;556,00000000;
3,106463;0,3982;-0,0249;-0,0232;0,0073;-0,0012;0,0073;37,58774167;36,80774833;3,69416142;556,00000000;
3,206275;0,0052;0,0059;-0,2363;0,0061;-0,0037;0,0073;37,58774167;36,80774833;3,69416142;556,00000000;
3,306838;-0,1079;0,0034;-0,0831;0,0049;-0,0043;0,0086;37,58774167;36,80774833;3,69416142;556,00000000;
3,407574;0,0277;0,0086;0,0834;0,0098;-0,0067;0,0049;37,58774167;36,80774833;3,69416142;556,00000000;
3,507930;0,0186;-0,0651;-0,1047;0,0116;-0,0049;0,0018;37,58774167;36,80774833;3,69416142;556,00000000;
3,608348;0,2367;-0,1355;0,0697;0,0086;-0,0073;0,0037;37,58774167;36,80774833;3,69416142;556,00000000;
3,709051;-0,2331;-0,1809;-0,0982;0,0140;-0,0037;0,0024;37,58774167;36,80774833;3,69416142;556,00000000;
3,809488;-0,0359;-0,1048;-0,0317;0,0147;0,0006;0,0006;37,58774167;36,80774833;3,69416142;556,00000000;
3,912700;-0,0847;-0,1192;-0,1000;0,0110;0,0024;-0,0018;37,58774167;36,80774833;3,69416142;543,00000000;
4,010616;0,1414;-0,0172;0,1380;0,0067;0,0073;-0,0006;37,58772000;36,80783667;5,13281012;543,00000000;
4,110634;-0,3498;-0,0362;0,0196;0,0043;0,0000;0,0006;37,58772000;36,80783667;5,13281012;543,00000000;
4,211178;-0,1031;-0,1352;0,0563;0,0055;-0,0006;-0,0086;37,58772000;36,80783667;5,13281012;543,00000000;
4,311775;0,0119;-0,1419;0,4041;0,0061;-0,0024;-0,0037;37,58772000;36,80783667;5,13281012;543,00000000;
4,412106;-0,1043;-0,1437;0,0106;0,0067;-0,0024;-0,0043;37,58772000;36,80783667;5,13281012;543,00000000;
4,512730;0,3557;-0,0200;0,0156;0,0073;-0,0043;-0,0079;37,58772000;36,80783667;5,13281012;543,00000000;
4,613295;0,2117;-0,0625;-0,6196;0,0073;-0,0086;-0,0073;37,58772000;36,80783667;5,13281012;543,00000000;
4,713796;0,0867;-0,1380;-0,3468;0,0079;0,0006;-0,0086;37,58772000;36,80783667;5,13281012;543,00000000;
4,814187;0,3415;-0,1173;-0,4205;0,0086;0,0006;-0,0067;37,58772000;36,80783667;5,13281012;543,00000000;
4,914275;-0,0669;0,0477;-0,6471;0,0159;0,0073;-0,0153;37,58772000;36,80783667;5,13281012;542,90000000;
5,015173;0,1450;-0,0875;-0,2189;0,0171;-0,0006;-0,0092;37,58771833;36,80789500;6,54778147;542,90000000;
5,130539;0,0544;-0,1342;-0,4839;0,0165;0,0006;-0,0134;37,58771833;36,80789500;6,54778147;542,90000000;
5,215329;0,2777;-0,1032;-0,6406;0,0104;0,0049;-0,0140;37,58771833;36,80789500;6,54778147;542,90000000;
5,316106;-0,0029;-0,1928;-0,3960;0,0049;0,0006;-0,0134;37,58771833;36,80789500;6,54778147;542,90000000;
5,416677;-0,2707;-0,1492;-0,8784;0,0031;-0,0012;-0,0202;37,58771833;36,80789500;6,54778147;542,90000000;
5,516915;-0,6408;-0,1183;-0,6016;-0,0024;-0,0055;-0,0165;37,58771833;36,80789500;6,54778147;542,90000000;
5,617857;0,2930;-0,1291;0,0340;-0,0079;-0,0092;-0,0140;37,58771833;36,80789500;6,54778147;542,90000000;
5,718104;0,4281;0,0492;-0,5144;-0,0098;-0,0171;-0,0128;37,58771833;36,80789500;6,54778147;542,90000000;
5,818153;-0,1288;-0,0246;-0,5113;-0,0073;-0,0073;-0,0159;37,58771833;36,80789500;6,54778147;542,90000000;
5,918300;-0,0886;0,0311;-0,5743;-0,0012;-0,0031;-0,0122;37,58771833;36,80789500;6,54778147;543,10000000;
6,019545;-0,0842;-0,0144;-0,1032;-0,0006;-0,0037;-0,0110;37,58770833;36,80796333;7,46964884;543,10000000;
6,119274;0,5579;0,1445;-0,1440;0,0037;-0,0024;-0,0140;37,58770833;36,80796333;7,46964884;543,10000000;
6,219219;0,1280;0,0873;0,3593;0,0098;0,0031;-0,0122;37,58770833;36,80796333;7,46964884;543,10000000;
6,320256;0,0082;0,1071;0,2838;0,0128;0,0006;-0,0104;37,58770833;36,80796333;7,46964884;543,10000000;
6,419768;0,2640;0,0542;0,4406;0,0073;-0,0061;-0,0067;37,58770833;36,80796333;7,46964884;543,10000000;
6,521613;-0,2140;-0,0187;-0,2380;0,0086;-0,0061;-0,0086;37,58770833;36,80796333;7,46964884;543,10000000;
6,621861;-0,4673;0,1080;-0,3032;0,0104;0,0049;-0,0147;37,58770833;36,80796333;7,46964884;543,10000000;
6,722061;0,4802;-0,0269;0,2924;0,0098;0,0055;-0,0086;37,58770833;36,80796333;7,46964884;543,10000000;
6,822049;-0,3172;0,0561;-0,3770;0,0043;0,0031;-0,0073;37,58770833;36,80796333;7,46964884;543,10000000;
6,922313;0,0214;0,2361;0,0141;0,0073;0,0092;-0,0098;37,58770833;36,80796333;7,46964884;543,40000000;
7,022846;-0,2327;-0,0915;-0,0857;0,0073;0,0043;-0,0092;37,58770500;36,80807000;8,55468369;543,40000000;
7,123453;-0,1373;0,1480;-0,3746;0,0079;0,0043;-0,0086;37,58770500;36,80807000;8,55468369;543,40000000;
7,223910;0,2537;-0,1025;0,6796;0,0098;0,0037;-0,0055;37,58770500;36,80807000;8,55468369;543,40000000;
7,324562;-0,1172;-0,0357;0,0509;0,0092;-0,0024;0,0012;37,58770500;36,80807000;8,55468369;543,40000000;
7,423969;-0,7813;0,0172;-0,2425;0,0171;-0,0031;-0,0067;37,58770500;36,80807000;8,55468369;543,40000000;
7,524655;0,3968;-0,0901;0,2184;0,0208;0,0024;-0,0031;37,58770500;36,80807000;8,55468369;543,40000000;
7,625738;0,1038;-0,0592;-0,4166;0,0183;0,0031;0,0006;37,58770500;36,80807000;8,55468369;543,40000000;
7,726426;-0,1322;-0,0269;-0,0387;0,0208;0,0067;-0,0018;37,58770500;36,80807000;8,55468369;543,40000000;
7,826497;0,0307;-0,0712;-0,6649;0,0159;-0,0049;-0,0006;37,58770500;36,80807000;8,55468369;543,40000000;
7,926628;-0,3989;-0,0196;-0,8769;0,0153;0,0018;-0,0024;37,58770500;36,80807000;8,55468369;543,70000000;
8,027569;-0,4721;-0,1342;-0,6026;0,0147;0,0049;0,0043;37,58770000;36,80817167;9,17698288;543,70000000;
8,127997;0,0717;-0,0905;-0,2899;0,0140;0,0037;0,0024;37,58770000;36,80817167;9,17698288;543,70000000;
8,227844;-0,4095;0,1604;-0,5320;0,0116;-0,0012;0,0079;37,58770000;36,80817167;9,17698288;543,70000000;
8,328455;-0,0871;-0,1592;-0,4311;0,0104;0,0031;0,0092;37,58770000;36,80817167;9,17698288;543,70000000;
8,428101;-0,0644;-0,1743;0,0278;0,0122;0,0067;0,0073;37,58770000;36,80817167;9,17698288;543,70000000;
8,528661;0,0018;-0,2144;0,5898;0,0067;-0,0006;0,0104;37,58770000;36,80817167;9,17698288;543,70000000;
8,629699;0,1438;-0,2153;0,5937;0,0024;-0,0037;0,0165;37,58770000;36,80817167;9,17698288;543,70000000;
8,730066;0,0097;-0,1362;0,2016;0,0018;-0,0006;0,0140;37,58770000;36,80817167;9,17698288;543,70000000;
8,830263;-0,1243;-0,2687;0,1210;0,0043;-0,0018;0,0098;37,58770000;36,80817167;9,17698288;543,70000000;
8,930243;0,0547;-0,2276;0,1786;0,0092;0,0049;0,0104;37,58770000;36,80817167;9,17698288;545,90000000;
9,031379;-0,5763;-0,1576;-0,3292;0,0104;0,0079;0,0177;37,58770333;36,80833500;9,78744316;545,90000000;
9,131747;-0,0880;-0,0872;-0,3416;0,0092;0,0067;0,0116;37,58770333;36,80833500;9,78744316;545,90000000;
9,231805;-0,2337;-0,2305;-0,5826;0,0098;0,0049;0,0165;37,58770333;36,80833500;9,78744316;545,90000000;
9,332391;-0,4346;-0,1103;-0,4213;0,0092;0,0055;0,0232;37,58770333;36,80833500;9,78744316;545,90000000;
9,432651;-0,2158;0,0164;-0,0700;0,0104;0,0257;0,0281;37,58770333;36,80833500;9,78744316;545,90000000;
9,533287;-0,4818;-0,1319;0,1709;0,0067;0,0195;0,0324;37,58770333;36,80833500;9,78744316;545,90000000;
9,633673;-0,2733;0,0616;-0,0180;0,0104;0,0208;0,0397;37,58770333;36,80833500;9,78744316;545,90000000;
9,733937;-0,3789;-0,1301;-0,1471;0,0104;0,0134;0,0379;37,58770333;36,80833500;9,78744316;545,90000000;
9,834947;0,0194;-0,2153;0,2834;0,0073;0,0116;0,0464;37,58770333;36,80833500;9,78744316;545,90000000;
9,935270;-0,3460;-0,1011;0,2796;0,0073;0,0202;0,0501;37,58770333;36,80833500;9,78744316;545,90000000;
10,035633;0,1291;-0,1680;0,5864;0,0061;0,0147;0,0550;37,58770333;36,80833500;9,78744316;545,90000000;
10,135937;0,0342;-0,1729;0,5598;0,0073;0,0098;0,0611;37,58770333;36,80833500;9,78744316;545,90000000;
10,236572;-0,0019;-0,0666;0,1926;0,0104;0,0092;0,0623;37,58770333;36,80833500;9,78744316;545,90000000;
10,337276;-0,0060;-0,1262;0,4210;0,0110;-0,0079;0,0635;37,58770333;36,80833500;9,78744316;545,90000000;
10,437457;0,0345;-0,1732;0,2556;0,0189;-0,0086;0,0617;37,58770333;36,80833500;9,78744316;545,90000000;
10,537920;-0,4117;0,1373;-0,1328;0,0220;-0,0104;0,0574;37,58770333;36,80833500;9,78744316;546,90000000;
10,638508;0,0068;-0,0148;-0,2544;0,0208;0,0012;0,0556;37,58770667;36,80850000;10,02936268;546,90000000;
10,738969;0,6022;-0,0370;-0,2219;0,0147;-0,0049;0,0593;37,58770667;36,80850000;10,02936268;546,90000000;
10,839442;0,0955;0,0328;-0,5635;0,0079;-0,0012;0,0562;37,58770667;36,80850000;10,02936268;546,90000000;
10,939709;-0,2657;-0,1773;0,1467;0,0024;0,0000;0,0562;37,58770667;36,80850000;10,02936268;546,90000000;
11,040224;0,2290;-0,3574;0,1836;-0,0037;0,0037;0,0635;37,58770667;36,80850000;10,02936268;546,90000000;
11,140577;0,1555;-0,3779;-0,0495;-0,0061;0,0079;0,0666;37,58770667;36,80850000;10,02936268;546,90000000;
11,246428;-0,2828;-0,1942;-0,1506;-0,0006;0,0098;0,0605;37,58770667;36,80850000;10,02936268;546,90000000;
11,341370;-0,0338;-0,1759;0,2362;0,0061;0,0116;0,0660;37,58770667;36,80850000;10,02936268;546,90000000;
11,447655;-0,5216;-0,1352;-0,3574;0,0140;0,0165;0,0641;37,58770667;36,80850000;10,02936268;547,60000000;
11,541949;-0,3190;-0,0894;-0,1599;0,0098;0,0214;0,0727;37,58771667;36,80860667;10,07980537;547,60000000;
11,643011;-0,0826;-0,0642;0,1131;0,0110;0,0263;0,0770;37,58771667;36,80860667;10,07980537;547,60000000;
11,743881;-0,0319;-0,0611;0,0598;0,0055;0,0232;0,0880;37,58771667;36,80860667;10,07980537;547,60000000;
11,844265;0,3536;-0,0940;-0,3305;0,0012;0,0165;0,0855;37,58771667;36,80860667;10,07980537;547,60000000;
11,944706;0,3058;0,0017;0,0213;-0,0049;0,0098;0,0861;37,58771667;36,80860667;10,07980537;547,60000000;
12,044951;0,1543;0,0867;-0,0201;-0,0055;0,0128;0,0886;37,58771667;36,80860667;10,07980537;547,60000000;
12,145718;-0,1186;0,0806;-0,0776;-0,0061;0,0055;0,0849;37,58771667;36,80860667;10,07980537;547,60000000;
12,246158;0,0870;-0,0448;-0,1937;-0,0031;-0,0049;0,0837;37,58771667;36,80860667;10,07980537;547,60000000;
12,346135;0,1274;0,2746;-0,3204;-0,0055;0,0000;0,0843;37,58771667;36,80860667;10,07980537;547,60000000;
12,446050;0,0313;0,2957;0,1992;-0,0055;-0,0043;0,0849;37,58771667;36,80860667;10,07980537;549,30000000;
12,547010;0,0121;0,2390;-0,0810;-0,0067;-0,0128;0,0855;37,58772833;36,80869833;9,51258183;549,30000000;
12,647556;-0,0468;0,1388;-0,4898;-0,0104;-0,0061;0,0806;37,58772833;36,80869833;9,51258183;549,30000000;
12,747921;0,0957;0,1613;-0,1736;-0,0116;-0,0061;0,0825;37,58772833;36,80869833;9,51258183;549,30000000;
12,848359;0,2402;0,1139;0,4933;-0,0140;-0,0134;0,0794;37,58772833;36,80869833;9,51258183;549,30000000;
12,949442;-0,0440;0,0345;0,2814;-0,0079;-0,0153;0,0757;37,58772833;36,80869833;9,51258183;549,30000000;
13,049869;0,0890;0,0943;0,4744;-0,0037;-0,0195;0,0806;37,58772833;36,80869833;9,51258183;549,30000000;
13,150386;0,3472;-0,1366;0,6326;0,0031;-0,0202;0,0806;37,58772833;36,80869833;9,51258183;549,30000000;
13,250944;-0,0860;-0,2583;-0,0065;0,0006;-0,0171;0,0776;37,58772833;36,80869833;9,51258183;549,30000000;
13,350772;0,0111;0,0400;0,1201;0,0037;-0,0312;0,0751;37,58772833;36,80869833;9,51258183;549,30000000;
13,451227;0,3445;-0,2232;0,0521;0,0043;-0,0208;0,0837;37,58772833;36,80869833;9,51258183;549,70000000;
13,552513;-0,0987;-0,1922;-0,7681;0,0024;-0,0226;0,0812;37,58774500;36,80879833;9,34581184;549,70000000;
13,652388;0,2576;-0,2020;0,1284;0,0000;-0,0208;0,0812;37,58774500;36,80879833;9,34581184;549,70000000;
13,753332;0,2746;-0,2062;0,0627;-0,0037;-0,0128;0,0831;37,58774500;36,80879833;9,34581184;549,70000000;
13,853974;0,1395;-0,1074;-0,4623;-0,0024;-0,0049;0,0757;37,58774500;36,80879833;9,34581184;549,70000000;
13,954239;0,0193;-0,0566;-0,6378;-0,0055;-0,0128;0,0794;37,58774500;36,80879833;9,34581184;549,70000000;
14,054780;0,1853;0,0332;-0,7681;-0,0049;-0,0061;0,0745;37,58774500;36,80879833;9,34581184;549,70000000;
14,155311;0,1550;-0,0564;0,0644;-0,0122;-0,0061;0,0757;37,58774500;36,80879833;9,34581184;549,70000000;
14,255352;0,0739;0,0672;-0,0958;-0,0086;-0,0006;0,0794;37,58774500;36,80879833;9,34581184;549,70000000;
14,356026;-0,1610;-0,0075;-0,2672;-0,0092;-0,0031;0,0770;37,58774500;36,80879833;9,34581184;549,70000000;
14,455788;0,3387;0,0575;-0,0520;-0,0043;0,0031;0,0770;37,58774500;36,80879833;9,34581184;550,10000000;
14,557518;0,3914;-0,2077;0,0820;-0,0079;0,0043;0,0800;37,58777333;36,80889333;8,71115875;550,10000000;
14,657757;-0,0520;-0,1134;-0,1252;-0,0043;0,0055;0,0757;37,58777333;36,80889333;8,71115875;550,10000000;
14,758738;0,2623;0,0222;0,0767;-0,0049;0,0104;0,0782;37,58777333;36,80889333;8,71115875;550,10000000;
14,859260;-0,0830;-0,0005;-0,4011;0,0012;0,0079;0,0764;37,58777333;36,80889333;8,71115875;550,10000000;
14,959644;0,3955;0,0435;0,1818;-0,0018;0,0024;0,0788;37,58777333;36,80889333;8,71115875;550,10000000;
15,059886;-0,3344;0,0387;-1,0426;-0,0012;-0,0006;0,0745;37,58777333;36,80889333;8,71115875;550,10000000;
15,160304;0,2588;-0,1577;-0,4869;-0,0012;-0,0086;0,0666;37,58777333;36,80889333;8,71115875;550,10000000;
15,260827;1,0517;-0,0128;0,1996;0,0000;-0,0110;0,0709;37,58777333;36,80889333;8,71115875;550,10000000;
15,360707;0,4782;0,0856;0,1901;-0,0012;-0,0049;0,0745;37,58777333;36,80889333;8,71115875;550,10000000;
15,460494;-0,2097;0,0689;-0,7877;0,0049;-0,0055;0,0629;37,58777333;36,80889333;8,71115875;548,10000000;
15,561171;0,8901;0,1070;0,4161;0,0055;-0,0037;0,0715;37,58778000;36,80897833;8,19077492;548,10000000;
15,662809;-0,3713;0,1344;-1,1170;0,0037;-0,0049;0,0690;37,58778000;36,80897833;8,19077492;548,10000000;
15,763354;0,1291;-0,1331;-0,6524;0,0098;0,0128;0,0605;37,58778000;36,80897833;8,19077492;548,10000000;
15,864117;-0,1329;0,0257;-1,0326;0,0110;0,0018;0,0611;37,58778000;36,80897833;8,19077492;548,10000000;
15,964283;0,7488;-0,1531;-0,0683;0,0079;0,0128;0,0678;37,58778000;36,80897833;8,19077492;548,10000000;
16,064745;-0,2668;-0,2273;-1,1925;0,0067;0,0116;0,0660;37,58778000;36,80897833;8,19077492;548,10000000;
16,164948;-0,5110;-0,3882;-0,9785;0,0067;0,0073;0,0495;37,58778000;36,80897833;8,19077492;548,10000000;
16,265612;0,3361;-0,1689;0,2927;0,0024;0,0055;0,0525;37,58778000;36,80897833;8,19077492;548,10000000;
16,366233;-0,2827;-0,0520;-0,1070;0,0037;0,0043;0,0501;37,58778000;36,80897833;8,19077492;548,10000000;
16,465634;0,0924;-0,0137;0,5393;0,0049;0,0055;0,0440;37,58778000;36,80897833;8,19077492;549,00000000;
16,566625;0,3256;-0,0329;1,5044;0,0086;0,0073;0,0415;37,58781667;36,80906000;7,42177963;549,00000000;
16,667090;-0,2648;-0,1031;0,6028;0,0128;0,0006;0,0318;37,58781667;36,80906000;7,42177963;549,00000000;
16,767875;0,5418;-0,1581;1,1102;0,0116;-0,0110;0,0330;37,58781667;36,80906000;7,42177963;549,00000000;
16,867862;0,1200;-0,1904;0,3034;0,0122;-0,0116;0,0293;37,58781667;36,80906000;7,42177963;549,00000000;
16,968517;0,1397;-0,0960;0,1570;0,0116;-0,0116;0,0293;37,58781667;36,80906000;7,42177963;549,00000000;
17,068963;0,0796;-0,0184;-0,0247;0,0104;-0,0122;0,0281;37,58781667;36,80906000;7,42177963;549,00000000;
17,169671;0,0882;0,0535;-0,1440;0,0067;-0,0134;0,0293;37,58781667;36,80906000;7,42177963;549,00000000;
17,270058;0,0373;0,0291;-0,1782;0,0067;-0,0098;0,0293;37,58781667;36,80906000;7,42177963;549,00000000;
17,370086;-0,0939;-0,0668;-0,4424;0,0079;-0,0092;0,0293;37,58781667;36,80906000;7,42177963;549,00000000;
17,470283;0,0593;-0,0439;-0,3254;0,0055;-0,0049;0,0269;37,58781667;36,80906000;7,42177963;548,90000000;
17,571140;0,0372;-0,0127;-0,2539;0,0067;-0,0012;0,0257;37,58785000;36,80913333;6,95029402;548,90000000;
17,671210;0,0780;0,1032;-0,1298;0,0055;-0,0024;0,0250;37,58785000;36,80913333;6,95029402;548,90000000;
17,771888;0,0539;-0,0558;-0,0750;0,0037;0,0018;0,0250;37,58785000;36,80913333;6,95029402;548,90000000;
17,872661;0,0915;0,0190;0,0349;0,0031;0,0018;0,0263;37,58785000;36,80913333;6,95029402;548,90000000;
17,973505;-0,1225;-0,0347;-0,1501;0,0061;0,0006;0,0250;37,58785000;36,80913333;6,95029402;548,90000000;
18,073806;0,1307;0,0027;-0,2034;0,0055;0,0000;0,0226;37,58785000;36,80913333;6,95029402;548,90000000;
18,174047;0,2040;0,0142;0,0883;0,0067;-0,0043;0,0208;37,58785000;36,80913333;6,95029402;548,90000000;
18,274398;-0,0973;-0,0748;-0,2304;0,0055;-0,0006;0,0195;37,58785000;36,80913333;6,95029402;548,90000000;
18,388337;0,1140;-0,0313;0,0567;0,0061;-0,0024;0,0177;37,58785000;36,80913333;6,95029402;548,90000000;
18,474739;0,0561;-0,0456;-0,4412;0,0079;-0,0031;0,0159;37,58785000;36,80913333;6,95029402;549,00000000;
18,575098;0,0545;-0,0075;-0,4460;0,0049;-0,0055;0,0177;37,58788000;36,80919333;5,91415834;549,00000000;
18,676159;0,0689;0,0147;-0,2545;0,0018;-0,0031;0,0159;37,58788000;36,80919333;5,91415834;549,00000000;
18,776991;-0,0845;-0,0118;-0,3098;0,0018;-0,0031;0,0153;37,58788000;36,80919333;5,91415834;549,00000000;
18,877604;-0,0878;0,0302;-0,1899;0,0018;-0,0024;0,0147;37,58788000;36,80919333;5,91415834;549,00000000;
18,976923;0,0376;0,0213;-0,1465;0,0024;0,0000;0,0122;37,58788000;36,80919333;5,91415834;549,00000000;
19,078252;-0,0511;0,0198;-0,0123;0,0024;-0,0018;0,0140;37,58788000;36,80919333;5,91415834;549,00000000;
19,178583;-0,0104;-0,0249;-0,0960;0,0031;-0,0006;0,0159;37,58788000;36,80919333;5,91415834;549,00000000;
19,279188;-0,0471;-0,1109;-0,1009;0,0031;-0,0049;0,0122;37,58788000;36,80919333;5,91415834;549,00000000;
19,379311;0,1247;-0,1084;0,0904;0,0031;-0,0092;0,0122;37,58788000;36,80919333;5,91415834;549,00000000;
19,479025;-0,0591;-0,0053;-0,2975;0,0012;-0,0049;0,0134;37,58788000;36,80919333;5,91415834;548,80000000;
19,579936;0,1481;-0,0173;-0,0344;0,0000;-0,0061;0,0110;37,58790667;36,80924500;4,83530045;548,80000000;
19,680645;0,0110;-0,0075;0,1475;-0,0012;-0,0018;0,0104;37,58790667;36,80924500;4,83530045;548,80000000;
19,780927;0,0556;0,1120;0,2323;0,0043;0,0006;0,0104;37,58790667;36,80924500;4,83530045;548,80000000;
19,881605;-0,2136;0,1155;0,0399;0,0061;-0,0031;0,0092;37,58790667;36,80924500;4,83530045;548,80000000;
19,981871;-0,0057;0,3208;-0,1348;0,0073;-0,0012;0,0098;37,58790667;36,80924500;4,83530045;548,80000000;
20,082481;0,1336;0,1743;-0,1401;0,0086;-0,0073;0,0092;37,58790667;36,80924500;4,83530045;548,80000000;
20,183333;0,1071;0,2870;-0,1142;0,0092;-0,0098;0,0061;37,58790667;36,80924500;4,83530045;548,80000000;
20,283834;0,0146;0,1949;-0,2865;0,0079;-0,0073;0,0049;37,58790667;36,80924500;4,83530045;548,80000000;
20,383972;0,1596;0,1444;-0,0257;0,0086;-0,0037;0,0037;37,58790667;36,80924500;4,83530045;548,80000000;
20,483737;-0,0358;0,0360;-0,1760;0,0049;-0,0049;-0,0006;37,58790667;36,80924500;4,83530045;548,60000000;
20,584857;0,0514;0,0376;-0,2224;0,0049;-0,0055;-0,0024;37,58792667;36,80928500;3,91755080;548,60000000;
20,685082;-0,0581;0,0196;-0,2924;0,0031;-0,0092;-0,0049;37,58792667;36,80928500;3,91755080;548,60000000;
20,785856;0,0718;0,0438;-0,2351;0,0000;-0,0061;-0,0061;37,58792667;36,80928500;3,91755080;548,60000000;
20,886314;-0,0556;-0,5304;-0,4083;-0,0018;-0,0122;-0,0049;37,58792667;36,80928500;3,91755080;548,60000000;
20,986594;-0,0308;-0,2603;-0,1533;-0,0049;-0,0055;-0,0079;37,58792667;36,80928500;3,91755080;548,60000000;
21,087205;0,0164;-0,1557;-0,0442;-0,0024;-0,0061;-0,0079;37,58792667;36,80928500;3,91755080;548,60000000;
21,187846;0,0409;-0,0698;0,0759;0,0018;-0,0049;-0,0067;37,58792667;36,80928500;3,91755080;548,60000000;
21,287970;0,0042;-0,0674;0,1841;0,0061;-0,0031;-0,0067;37,58792667;36,80928500;3,91755080;548,60000000;
21,388217;-0,0570;-0,0517;0,0472;0,0086;0,0000;-0,0079;37,58792667;36,80928500;3,91755080;548,60000000;
21,487995;-0,0051;0,0481;-0,1281;0,0110;0,0018;-0,0073;37,58792667;36,80928500;3,91755080;548,70000000;
21,589604;0,0019;0,0188;-0,2604;0,0079;0,0018;-0,0067;37,58794333;36,80931833;3,26076531;548,70000000;
21,689880;-0,1205;0,0757;-0,2949;0,0043;-0,0018;-0,0086;37,58794333;36,80931833;3,26076531;548,70000000;
21,790214;0,0158;0,1724;-0,2127;0,0024;-0,0037;-0,0079;37,58794333;36,80931833;3,26076531;548,70000000;
21,890703;-0,0770;0,2628;-0,0553;0,0037;-0,0073;-0,0061;37,58794333;36,80931833;3,26076531;548,70000000;
21,991160;0,0510;0,2497;0,0958;0,0006;-0,0098;-0,0055;37,58794333;36,80931833;3,26076531;548,70000000;
22,091426;-0,4212;-0,1044;0,2665;0,0037;0,0018;-0,0067;37,58794333;36,80931833;3,26076531;548,70000000;
22,192068;0,1747;0,2331;0,5579;0,0226;-0,0037;-0,0086;37,58794333;36,80931833;3,26076531;548,70000000;
22,292746;-0,0553;0,3719;-0,5815;0,0293;-0,0195;-0,0061;37,58794333;36,80931833;3,26076531;548,70000000;
22,392846;-0,5239;0,2105;-1,7449;0,0147;-0,0067;-0,0031;37,58794333;36,80931833;3,26076531;548,70000000;
22,492828;0,3929;-0,0175;-0,6653;-0,0043;-0,0049;-0,0055;37,58794333;36,80931833;3,26076531;548,90000000;
22,593919;-0,0563;0,1047;-0,0791;-0,0140;-0,0147;-0,0061;37,58795833;36,80934000;2,37544298;548,90000000;
22,694140;-0,1825;0,1519;0,6820;-0,0183;0,0000;-0,0043;37,58795833;36,80934000;2,37544298;548,90000000;
22,794403;0,0760;0,1157;0,5910;-0,0098;0,0061;-0,0073;37,58795833;36,80934000;2,37544298;548,90000000;
22,894934;0,0427;0,1473;0,2700;0,0024;0,0000;-0,0073;37,58795833;36,80934000;2,37544298;548,90000000;
22,995397;-0,1086;0,0734;0,0205;0,0104;-0,0018;-0,0061;37,58795833;36,80934000;2,37544298;548,90000000;
23,094926;-0,0836;0,0449;-0,3341;0,0171;0,0000;-0,0067;37,58795833;36,80934000;2,37544298;548,90000000;
23,195964;-0,0280;-0,0059;-0,4252;0,0140;-0,0037;-0,0049;37,58795833;36,80934000;2,37544298;548,90000000;
23,296296;-0,0187;0,0236;-0,2769;0,0092;-0,0079;-0,0043;37,58795833;36,80934000;2,37544298;548,90000000;
23,396737;-0,0711;-0,0109;-0,2457;0,0043;-0,0079;-0,0043;37,58795833;36,80934000;2,37544298;548,90000000;
23,496793;-0,0548;0,0671;-0,2051;0,0006;-0,0092;-0,0037;37,58795833;36,80934000;2,37544298;549,10000000;
23,596785;0,1282;0,0927;0,0437;0,0012;-0,0116;-0,0037;37,58797000;36,80936000;2,19014311;549,10000000;
23,697880;-0,0291;0,0838;-0,0475;0,0055;-0,0086;-0,0037;37,58797000;36,80936000;2,19014311;549,10000000;
23,798498;-0,0922;0,2793;-0,0333;0,0073;-0,0110;-0,0043;37,58797000;36,80936000;2,19014311;549,10000000;
23,898810;-0,1163;0,4174;-0,0228;0,0104;-0,0079;-0,0037;37,58797000;36,80936000;2,19014311;549,10000000;
23,999455;0,0797;0,2264;-0,0035;0,0122;-0,0079;-0,0055;37,58797000;36,80936000;2,19014311;549,10000000;
24,099866;0,0298;0,1491;-0,1660;0,0147;-0,0055;-0,0043;37,58797000;36,80936000;2,19014311;549,10000000;
24,200457;0,1138;0,1196;-0,2587;0,0104;-0,0043;-0,0037;37,58797000;36,80936000;2,19014311;549,10000000;
24,300809;0,0243;0,1029;-0,3477;0,0079;-0,0018;-0,0037;37,58797000;36,80936000;2,19014311;549,10000000;
24,401388;-0,0327;0,0489;-0,1812;0,0049;-0,0043;-0,0049;37,58797000;36,80936000;2,19014311;549,10000000;
24,500730;-0,0496;0,0836;-0,1132;0,0018;-0,0043;-0,0043;37,58797000;36,80936000;2,19014311;549,40000000;
24,601509;-0,0744;-0,0001;-0,0408;0,0018;-0,0086;-0,0049;37,58798167;36,80937833;2,00226951;549,40000000;
24,701894;-0,0882;-0,0074;0,0075;0,0049;-0,0079;-0,0049;37,58798167;36,80937833;2,00226951;549,40000000;
24,803244;-0,1010;-0,4624;0,0611;0,0000;-0,0037;-0,0006;37,58798167;36,80937833;2,00226951;549,40000000;
24,903538;-0,0229;-0,0158;0,0572;-0,0086;-0,0049;-0,0098;37,58798167;36,80937833;2,00226951;549,40000000;
25,003790;0,0776;0,3804;-0,2469;-0,0098;-0,0092;-0,0122;37,58798167;36,80937833;2,00226951;549,40000000;
25,104377;-0,0169;0,0855;-0,0434;0,0067;-0,0226;-0,0073;37,58798167;36,80937833;2,00226951;549,40000000;
25,204595;-0,4515;-0,1102;0,6550;0,0257;-0,0367;-0,0061;37,58798167;36,80937833;2,00226951;549,40000000;
25,305544;-0,0448;-0,0819;0,9988;0,0293;-0,0202;-0,0043;37,58798167;36,80937833;2,00226951;549,40000000;
25,405101;0,4439;-0,1032;0,4013;0,0299;-0,0153;-0,0043;37,58798167;36,80937833;2,00226951;549,40000000;
25,505499;0,2215;-0,0187;0,0280;0,0165;-0,0165;-0,0031;37,58798167;36,80937833;2,00226951;549,20000000;
25,606493;-0,1180;-0,0058;-0,5770;0,0055;-0,0049;-0,0055;37,58799000;36,80940167;2,69354129;549,20000000;
25,706689;-0,0508;0,0064;-0,5314;-0,0012;-0,0031;-0,0049;37,58799000;36,80940167;2,69354129;549,20000000;
25,807433;-0,1310;0,0608;-0,1985;0,0031;-0,0037;-0,0049;37,58799000;36,80940167;2,69354129;549,20000000;
25,907861;-0,0400;0,1129;0,0564;0,0061;-0,0043;-0,0043;37,58799000;36,80940167;2,69354129;549,20000000;
26,008468;-0,1486;0,1753;0,0669;0,0122;-0,0043;-0,0037;37,58799000;36,80940167;2,69354129;549,20000000;
26,109042;-0,0529;0,2060;0,0458;0,0183;-0,0043;-0,0018;37,58799000;36,80940167;2,69354129;549,20000000;
26,209401;0,1185;0,1271;0,0268;0,0183;-0,0031;0,0000;37,58799000;36,80940167;2,69354129;549,20000000;
26,309774;0,0752;0,1312;-0,0580;0,0189;0,0000;0,0000;37,58799000;36,80940167;2,69354129;549,20000000;
26,410614;-0,0530;0,1093;-0,1481;0,0153;0,0031;-0,0006;37,58799000;36,80940167;2,69354129;549,20000000;
26,518503;-0,0069;0,2057;-0,2374;0,0134;0,0037;-0,0018;37,58799000;36,80940167;2,69354129;549,70000000;
26,610699;0,2508;0,1859;-0,0117;0,0098;0,0012;-0,0037;37,58800333;36,80942833;3,09759831;549,70000000;
26,711343;0,1652;0,1309;-0,0968;0,0086;0,0012;-0,0086;37,58800333;36,80942833;3,09759831;549,70000000;
26,811982;0,2993;0,0959;-0,3199;0,0104;-0,0018;-0,0147;37,58800333;36,80942833;3,09759831;549,70000000;
26,912672;0,2621;0,0984;-0,3939;0,0092;-0,0134;-0,0263;37,58800333;36,80942833;3,09759831;549,70000000;
27,013292;-0,2478;-0,0660;-0,2648;0,0086;-0,0330;-0,0312;37,58800333;36,80942833;3,09759831;549,70000000;
27,113746;0,0704;-0,2738;0,5204;0,0073;-0,0440;-0,0330;37,58800333;36,80942833;3,09759831;549,70000000;
27,214008;0,3841;0,0509;-0,0170;0,0177;-0,0434;-0,0476;37,58800333;36,80942833;3,09759831;549,70000000;
27,314385;0,4572;-0,0346;-0,3367;0,0208;-0,0495;-0,0531;37,58800333;36,80942833;3,09759831;549,70000000;
27,414796;0,1528;-0,0680;-0,1980;0,0147;-0,0513;-0,0641;37,58800333;36,80942833;3,09759831;549,70000000;
27,515647;0,0217;-0,1812;-0,3741;0,0055;-0,0421;-0,0727;37,58800333;36,80942833;3,09759831;549,90000000;
27,615611;0,0872;-0,0409;-1,0958;-0,0031;-0,0342;-0,0843;37,58802167;36,80946167;3,99475908;549,90000000;
27,716345;0,4216;-0,0729;-0,5456;-0,0128;-0,0238;-0,0861;37,58802167;36,80946167;3,99475908;549,90000000;
27,816809;0,4231;-0,1237;-0,0110;-0,0250;-0,0189;-0,0959;37,58802167;36,80946167;3,99475908;549,90000000;
27,917051;-0,1489;-0,0463;-0,0335;-0,0287;-0,0079;-0,1081;37,58802167;36,80946167;3,99475908;549,90000000;
28,017714;-0,1441;-0,1347;0,3912;-0,0275;0,0018;-0,1161;37,58802167;36,80946167;3,99475908;549,90000000;
28,117572;0,1622;-0,2536;0,3425;-0,0189;0,0024;-0,1234;37,58802167;36,80946167;3,99475908;549,90000000;
28,218810;0,1245;-0,0898;0,3751;-0,0018;0,0012;-0,1332;37,58802167;36,80946167;3,99475908;549,90000000;
28,319198;0,0628;-0,3956;0,3841;0,0098;-0,0043;-0,1368;37,58802167;36,80946167;3,99475908;549,90000000;
28,419214;-0,3883;-0,1591;-0,4002;0,0092;-0,0079;-0,1411;37,58802167;36,80946167;3,99475908;549,90000000;
28,519889;-0,1981;0,0395;-0,4951;0,0043;-0,0037;-0,1448;37,58802167;36,80946167;3,99475908;550,50000000;
28,619978;0,3861;-0,0102;-0,5941;0,0024;0,0055;-0,1368;37,58804333;36,80950833;5,22185707;550,50000000;
28,720777;-0,2215;0,1942;-1,2791;0,0073;-0,0043;-0,1387;37,58804333;36,80950833;5,22185707;550,50000000;
28,820919;-0,4811;0,1239;-0,7846;0,0128;-0,0086;-0,1429;37,58804333;36,80950833;5,22185707;550,50000000;
28,921508;0,1421;-0,0863;0,6621;0,0232;-0,0079;-0,1399;37,58804333;36,80950833;5,22185707;550,50000000;
29,022079;-0,3040;-0,0083;0,6161;0,0293;-0,0159;-0,1277;37,58804333;36,80950833;5,22185707;550,50000000;
29,122826;-0,4692;-0,0556;0,8696;0,0391;-0,0195;-0,1252;37,58804333;36,80950833;5,22185707;550,50000000;
29,223293;-0,3764;-0,0689;0,4765;0,0385;0,0006;-0,1185;37,58804333;36,80950833;5,22185707;550,50000000;
29,323671;-0,1156;-0,1000;-0,3285;0,0281;0,0220;-0,1087;37,58804333;36,80950833;5,22185707;550,50000000;
29,424104;0,2472;-0,1370;-0,4706;0,0140;0,0434;-0,1002;37,58804333;36,80950833;5,22185707;550,50000000;
29,524395;0,2901;-0,1371;-0,5738;0,0006;0,0574;-0,0971;37,58804333;36,80950833;5,22185707;549,60000000;
29,624320;0,0572;0,0605;-0,6261;-0,0122;0,0641;-0,0880;37,58804833;36,80956833;6,11850309;549,60000000;
29,724990;-0,2779;-0,0547;-0,7244;-0,0171;0,0568;-0,0867;37,58804833;36,80956833;6,11850309;549,60000000;
29,825711;-0,2720;0,3395;-0,1891;-0,0177;0,0409;-0,0812;37,58804833;36,80956833;6,11850309;549,60000000;
29,926220;-0,3677;-0,1826;0,1340;-0,0159;0,0183;-0,0776;37,58804833;36,80956833;6,11850309;549,60000000;
30,026374;-0,3823;-0,1872;0,0309;-0,0171;0,0012;-0,0757;37,58804833;36,80956833;6,11850309;549,60000000;
30,126846;0,7876;-0,4462;0,1541;-0,0305;-0,0379;-0,0611;37,58804833;36,80956833;6,11850309;549,60000000;
30,227329;-1,1556;-0,3744;0,6665;-0,0324;-0,0232;-0,0635;37,58804833;36,80956833;6,11850309;549,60000000;
30,328101;-0,6534;0,0635;-2,3120;-0,0214;0,0043;-0,0764;37,58804833;36,80956833;6,11850309;549,60000000;
30,427778;1,1442;-0,0553;-1,1839;-0,0128;0,0171;-0,0757;37,58804833;36,80956833;6,11850309;549,60000000;
30,527811;2,0900;-0,6881;1,4779;0,0098;0,0006;-0,0629;37,58804833;36,80956833;6,11850309;548,40000000;
30,628494;0,6417;-0,4713;0,4665;0,0226;0,0092;-0,0525;37,58805167;36,80964833;6,93073463;548,40000000;
30,729272;-0,4902;-0,2081;-0,5871;0,0330;0,0086;-0,0580;37,58805167;36,80964833;6,93073463;548,40000000;
30,830130;0,1791;-0,4275;-0,1500;0,0244;0,0061;-0,0513;37,58805167;36,80964833;6,93073463;548,40000000;
30,930587;-0,1869;-0,3255;-0,6904;0,0177;-0,0049;-0,0434;37,58805167;36,80964833;6,93073463;548,40000000;
31,031094;0,0666;-1,5374;0,7553;0,0067;-0,0104;-0,0244;37,58805167;36,80964833;6,93073463;548,40000000;
31,132036;-0,1977;-0,0364;2,3166;-0,0086;0,0092;-0,0092;37,58805167;36,80964833;6,93073463;548,40000000;
31,231486;-0,1632;-1,4215;-1,2487;-0,0122;0,0098;-0,0434;37,58805167;36,80964833;6,93073463;548,40000000;
31,333081;1,1981;-0,7978;1,2095;-0,0360;0,0024;-0,0171;37,58805167;36,80964833;6,93073463;548,40000000;
31,432706;-0,3423;0,0677;0,2557;-0,0519;0,0049;-0,0055;37,58805167;36,80964833;6,93073463;548,40000000;
31,533755;-1,2054;0,3304;-0,5303;-0,0403;-0,0067;-0,0208;37,58805167;36,80964833;6,93073463;548,20000000;
31,633746;0,3902;0,1818;1,2545;-0,0202;-0,0263;-0,0202;37,58806167;36,80973333;7,14640331;548,20000000;
31,734257;0,2114;-0,0470;0,5083;-0,0067;-0,0263;-0,0171;37,58806167;36,80973333;7,14640331;548,20000000;
31,834809;-0,6191;-0,2254;-1,2221;0,0043;-0,0281;-0,0269;37,58806167;36,80973333;7,14640331;548,20000000;
31,935323;0,0665;-0,0369;-0,9322;0,0110;-0,0140;-0,0189;37,58806167;36,80973333;7,14640331;548,20000000;
32,035576;-0,2157;0,2016;-0,6657;0,0208;-0,0092;-0,0147;37,58806167;36,80973333;7,14640331;548,20000000;
32,135864;0,0220;0,0069;0,4400;0,0275;-0,0110;-0,0110;37,58806167;36,80973333;7,14640331;548,20000000;
32,236262;-0,2181;-0,0320;0,3340;0,0318;-0,0147;-0,0037;37,58806167;36,80973333;7,14640331;548,20000000;
32,336447;0,0954;-0,1701;0,3764;0,0275;-0,0183;-0,0092;37,58806167;36,80973333;7,14640331;548,20000000;
32,436645;-0,4179;-0,0657;-0,4483;0,0128;-0,0092;-0,0098;37,58806167;36,80973333;7,14640331;548,20000000;
32,537345;-0,2453;-0,0492;0,5384;0,0000;0,0018;-0,0024;37,58806167;36,80973333;7,14640331;548,80000000;
32,646750;0,1598;-0,0734;-0,2596;0,0104;0,0513;-0,0037;37,58807333;36,80981167;7,44236851;548,80000000;
32,737821;-0,1734;-0,2132;0,0517;0,0171;0,0464;0,0006;37,58807333;36,80981167;7,44236851;548,80000000;
32,838604;-0,4993;-0,0063;0,6937;0,0312;0,0354;0,0061;37,58807333;36,80981167;7,44236851;548,80000000;
32,938756;0,7825;-0,3070;0,9753;0,0476;0,0318;-0,0037;37,58807333;36,80981167;7,44236851;548,80000000;
33,038608;0,8710;-0,2006;-0,5541;0,0464;0,0495;-0,0031;37,58807333;36,80981167;7,44236851;548,80000000;
33,139624;0,1985;-0,0691;-1,1665;0,0367;0,0611;-0,0006;37,58807333;36,80981167;7,44236851;548,80000000;
33,240065;-0,3345;-0,2424;-0,7101;0,0299;0,0660;-0,0012;37,58807333;36,80981167;7,44236851;548,80000000;
33,340633;1,8800;-0,3221;1,8388;0,0116;0,0751;0,0159;37,58807333;36,80981167;7,44236851;548,80000000;
33,440515;0,1693;-0,8919;1,1766;-0,0006;0,0739;0,0373;37,58807333;36,80981167;7,44236851;548,80000000;
33,541900;-2,5385;-0,0045;-2,2370;-0,0024;0,0550;0,0043;37,58807333;36,80981167;7,44236851;549,10000000;
33,643046;-0,8422;0,1395;-0,7602;-0,0171;-0,0006;-0,0140;37,58808500;36,80989333;7,85517597;549,10000000;
33,742304;0,6384;0,2060;0,1490;-0,0263;-0,0006;-0,0043;37,58808500;36,80989333;7,85517597;549,10000000;
33,842912;0,2275;0,0673;0,0478;-0,0165;-0,0012;0,0043;37,58808500;36,80989333;7,85517597;549,10000000;
33,943616;-0,1190;-0,0077;0,2009;0,0098;-0,0055;-0,0006;37,58808500;36,80989333;7,85517597;549,10000000;
34,044029;-0,0152;-0,0036;1,2209;0,0324;0,0031;-0,0067;37,58808500;36,80989333;7,85517597;549,10000000;
34,144452;-0,3400;0,0604;1,4627;0,0440;0,0110;-0,0104;37,58808500;36,80989333;7,85517597;549,10000000;
34,245005;0,2049;0,0011;1,0543;0,0501;0,0092;-0,0110;37,58808500;36,80989333;7,85517597;549,10000000;
34,344974;-0,1090;-0,0201;0,0029;0,0391;0,0079;-0,0122;37,58808500;36,80989333;7,85517597;549,10000000;
34,449773;0,4940;-0,3043;-0,0308;0,0183;0,0006;-0,0128;37,58808500;36,80989333;7,85517597;549,40000000;
34,545902;-0,1532;-0,1287;-0,8566;0,0012;0,0031;-0,0092;37,58809500;36,80998333;8,19540691;549,40000000;
34,646643;-0,3699;-0,0337;-1,1583;-0,0037;-0,0018;-0,0128;37,58809500;36,80998333;8,19540691;549,40000000;
34,746403;-0,1491;-0,0894;-0,6968;-0,0024;-0,0037;-0,0171;37,58809500;36,80998333;8,19540691;549,40000000;
34,846669;-0,0261;-0,1467;0,3942;-0,0055;-0,0024;-0,0153;37,58809500;36,80998333;8,19540691;549,40000000;
34,947514;0,2802;-0,0888;0,5889;-0,0043;-0,0037;-0,0140;37,58809500;36,80998333;8,19540691;549,40000000;
35,047836;0,1424;-0,0833;0,6741;0,0024;-0,0049;-0,0134;37,58809500;36,80998333;8,19540691;549,40000000;
35,148282;0,2446;-0,1419;0,3836;0,0128;-0,0037;-0,0122;37,58809500;36,80998333;8,19540691;549,40000000;
35,248649;0,0166;-0,1283;-0,1151;0,0183;0,0049;-0,0128;37,58809500;36,80998333;8,19540691;549,40000000;
35,348574;0,3026;-0,0984;-0,1155;0,0202;0,0018;-0,0116;37,58809500;36,80998333;8,19540691;549,40000000;
35,448371;0,1510;-0,1092;-0,1945;0,0171;-0,0049;-0,0104;37,58809500;36,80998333;8,19540691;549,70000000;
35,550229;-0,4259;-0,0391;-0,5984;0,0183;-0,0031;-0,0122;37,58810333;36,81007833;8,58453751;549,70000000;
35,650174;0,3531;-0,0569;-0,1789;0,0159;-0,0079;-0,0134;37,58810333;36,81007833;8,58453751;549,70000000;
35,750591;0,1253;0,0903;-0,2054;0,0092;-0,0086;-0,0098;37,58810333;36,81007833;8,58453751;549,70000000;
35,852087;-0,0027;-0,0937;-0,1991;0,0067;-0,0061;-0,0092;37,58810333;36,81007833;8,58453751;549,70000000;
35,952315;-0,3615;-0,1503;-0,4031;0,0073;-0,0024;-0,0116;37,58810333;36,81007833;8,58453751;549,70000000;
36,052465;0,1238;-0,0708;-0,2143;0,0055;-0,0037;-0,0116;37,58810333;36,81007833;8,58453751;549,70000000;
36,152937;0,2250;-0,1240;-0,3986;0,0086;-0,0055;-0,0134;37,58810333;36,81007833;8,58453751;549,70000000;
36,253623;-1,7185;-0,7213;-2,2859;0,0006;0,0269;-0,0122;37,58810333;36,81007833;8,58453751;549,70000000;
36,353864;-2,6751;0,0562;0,7669;0,0000;0,0006;-0,0134;37,58810333;36,81007833;8,58453751;549,70000000;
36,453712;0,2201;-0,3257;1,4853;0,0031;0,0373;0,0079;37,58810333;36,81007833;8,58453751;549,70000000;
36,554875;-3,6362;-0,0058;-1,8969;0,0312;-0,0165;-0,0281;37,58811333;36,81017500;8,68078995;549,70000000;
36,655116;0,3528;-0,2274;0,8410;0,0397;-0,0220;-0,0171;37,58811333;36,81017500;8,68078995;549,70000000;
36,754967;1,4315;-0,2730;0,8690;0,0293;-0,0189;0,0018;37,58811333;36,81017500;8,68078995;549,70000000;
36,855261;-0,2293;-0,1366;-0,7609;0,0312;-0,0214;-0,0092;37,58811333;36,81017500;8,68078995;549,70000000;
36,955490;-0,1454;0,0835;-0,6862;0,0379;-0,0110;-0,0147;37,58811333;36,81017500;8,68078995;549,70000000;
37,055751;-2,2584;-0,1429;0,0469;0,0244;-0,0165;-0,0195;37,58811333;36,81017500;8,68078995;549,70000000;
37,156272;2,6628;-0,5674;5,6886;-0,0024;-0,0031;0,0086;37,58811333;36,81017500;8,68078995;549,70000000;
37,257820;-0,5816;0,1582;-2,3200;-0,0092;0,0593;0,0464;37,58811333;36,81017500;8,68078995;549,70000000;
37,357839;-3,5154;0,4202;-4,8008;0,0110;0,0000;-0,0195;37,58811333;36,81017500;8,68078995;549,70000000;
37,457759;-0,0391;-0,2677;0,1879;0,0067;-0,0269;-0,0299;37,58811333;36,81017500;8,68078995;549,50000000;
37,559060;0,2645;0,1828;-0,4542;0,0000;-0,0275;-0,0165;37,58812167;36,81027500;8,82388306;549,50000000;
37,659413;0,2681;0,0504;-0,3719;0,0122;-0,0330;-0,0171;37,58812167;36,81027500;8,82388306;549,50000000;
37,759416;0,0628;0,1225;0,1001;0,0312;-0,0556;-0,0263;37,58812167;36,81027500;8,82388306;549,50000000;
37,860122;-0,1520;0,0256;-0,2075;0,0397;-0,0556;-0,0220;37,58812167;36,81027500;8,82388306;549,50000000;
37,960469;0,0768;0,0411;-0,2558;0,0385;-0,0470;-0,0318;37,58812167;36,81027500;8,82388306;549,50000000;
38,060333;0,3941;0,3157;0,1361;0,0293;-0,0415;-0,0318;37,58812167;36,81027500;8,82388306;549,50000000;
38,161001;0,5932;0,3356;-0,1075;0,0195;-0,0354;-0,0238;37,58812167;36,81027500;8,82388306;549,50000000;
38,261796;0,1295;0,4436;-0,7361;0,0134;-0,0312;-0,0263;37,58812167;36,81027500;8,82388306;549,50000000;
38,362169;-0,1501;0,3797;-0,5496;0,0183;-0,0257;-0,0281;37,58812167;36,81027500;8,82388306;549,50000000;
38,461998;-0,1018;0,1179;-0,0530;0,0140;-0,0232;-0,0293;37,58812167;36,81027500;8,82388306;546,90000000;
38,562864;0,2202;0,2336;-0,0879;0,0153;-0,0202;-0,0293;37,58812333;36,81038167;9,20683670;546,90000000;
38,663468;-0,0894;0,0207;-0,0712;0,0171;-0,0238;-0,0342;37,58812333;36,81038167;9,20683670;546,90000000;
38,765946;0,3197;0,0943;0,0728;0,0183;-0,0238;-0,0318;37,58812333;36,81038167;9,20683670;546,90000000;
38,864020;-0,1213;0,2002;-0,3925;0,0189;-0,0275;-0,0293;37,58812333;36,81038167;9,20683670;546,90000000;
38,964124;-0,2160;-0,0040;-0,7741;0,0140;-0,0299;-0,0373;37,58812333;36,81038167;9,20683670;546,90000000;
39,064213;0,3937;-0,0079;0,3122;0,0055;-0,0257;-0,0373;37,58812333;36,81038167;9,20683670;546,90000000;
39,165342;0,2815;0,0605;-0,1888;-0,0037;-0,0293;-0,0336;37,58812333;36,81038167;9,20683670;546,90000000;
39,265886;-0,3762;0,0121;-0,4675;-0,0104;-0,0147;-0,0428;37,58812333;36,81038167;9,20683670;546,90000000;
39,366186;0,3486;-0,1226;0,5150;-0,0153;-0,0208;-0,0409;37,58812333;36,81038167;9,20683670;546,90000000;
39,466281;-0,1238;-0,1645;-0,0391;-0,0128;-0,0318;-0,0434;37,58812333;36,81038167;9,20683670;546,30000000;
39,567211;-0,1230;-0,0965;-0,1110;-0,0098;-0,0397;-0,0440;37,58812833;36,81049500;10,20179462;546,30000000;
39,667794;-0,2594;-0,0908;-0,4448;-0,0037;-0,0409;-0,0464;37,58812833;36,81049500;10,20179462;546,30000000;
39,782390;0,2367;-0,1947;-0,0961;-0,0061;-0,0391;-0,0428;37,58812833;36,81049500;10,20179462;546,30000000;
39,868693;0,1444;-0,1616;-0,3380;-0,0079;-0,0421;-0,0458;37,58812833;36,81049500;10,20179462;546,30000000;
39,968902;-0,0960;-0,1430;-0,1309;-0,0098;-0,0476;-0,0458;37,58812833;36,81049500;10,20179462;546,30000000;
40,069518;-0,1830;-0,1215;-0,2979;-0,0122;-0,0580;-0,0464;37,58812833;36,81049500;10,20179462;546,30000000;
40,170140;-0,0339;-0,0798;0,2585;-0,0092;-0,0593;-0,0464;37,58812833;36,81049500;10,20179462;546,30000000;
40,270457;-0,1222;-0,0984;-0,8991;0,0006;-0,0629;-0,0452;37,58812833;36,81049500;10,20179462;546,30000000;
40,370832;-0,2050;-0,1031;0,1147;0,0049;-0,0586;-0,0403;37,58812833;36,81049500;10,20179462;546,30000000;
40,470466;-0,4246;-0,0686;0,3097;0,0140;-0,0525;-0,0318;37,58812833;36,81049500;10,20179462;546,10000000;
40,571647;0,1261;0,0086;0,0937;0,0238;-0,0202;-0,0373;37,58813000;36,81061500;10,99961376;546,10000000;
40,672109;0,4148;-0,0225;-0,6750;0,0208;0,0037;-0,0336;37,58813000;36,81061500;10,99961376;546,10000000;
40,772541;0,1681;-0,1743;-1,6845;-0,0049;0,0360;-0,0312;37,58813000;36,81061500;10,99961376;546,10000000;
40,872907;-0,4072;-0,2487;-2,7675;-0,0513;0,0599;-0,0214;37,58813000;36,81061500;10,99961376;546,10000000;
40,973714;0,8503;-0,4050;-2,2073;-0,1020;0,0770;-0,0110;37,58813000;36,81061500;10,99961376;546,10000000;
41,074171;-0,2965;-0,2526;-2,0271;-0,1442;0,0715;-0,0220;37,58813000;36,81061500;10,99961376;546,10000000;
41,174119;0,1849;0,0337;-0,9274;-0,1613;0,0922;-0,0257;37,58813000;36,81061500;10,99961376;546,10000000;
41,275111;-0,2349;0,2990;-0,4595;-0,1484;0,0855;-0,0208;37,58813000;36,81061500;10,99961376;546,10000000;
41,375553;-0,5943;0,5078;-0,4572;-0,1051;0,0800;-0,0263;37,58813000;36,81061500;10,99961376;546,10000000;
41,474885;-0,2897;0,1876;0,6729;-0,0580;0,0593;-0,0269;37,58813000;36,81061500;10,99961376;545,80000000;
41,576546;0,1943;0,1563;1,2707;-0,0061;0,0440;-0,0202;37,58813000;36,81074500;11,87464142;545,80000000;
41,676830;-0,4724;0,1213;0,8578;0,0354;0,0281;-0,0165;37,58813000;36,81074500;11,87464142;545,80000000;
41,777415;-0,3887;-0,0400;0,4296;0,0629;0,0195;-0,0214;37,58813000;36,81074500;11,87464142;545,80000000;
41,877638;0,2466;-0,1176;0,0394;0,0678;0,0104;-0,0153;37,58813000;36,81074500;11,87464142;545,80000000;
41,978190;-0,1960;-0,0477;-1,2315;0,0562;0,0086;-0,0110;37,58813000;36,81074500;11,87464142;545,80000000;
42,079084;-0,2624;-0,2751;-1,6310;0,0269;0,0287;-0,0153;37,58813000;36,81074500;11,87464142;545,80000000;
42,179316;0,0898;-0,1897;-0,4606;-0,0061;0,0342;-0,0055;37,58813000;36,81074500;11,87464142;545,80000000;
42,279729;-0,6922;-0,1323;-1,4626;-0,0250;0,0385;-0,0067;37,58813000;36,81074500;11,87464142;545,80000000;
42,379737;-0,2745;-0,0898;-0,6834;-0,0281;0,0391;-0,0122;37,58813000;36,81074500;11,87464142;545,80000000;
42,479675;0,2830;0,1657;0,1567;-0,0159;0,0373;-0,0104;37,58813000;36,81074500;11,87464142;545,70000000;
42,580628;0,1953;0,0393;0,7087;0,0037;0,0318;-0,0079;37,58812500;36,81088833;12,96945572;545,70000000;
42,681082;0,0874;0,2104;1,3749;0,0281;0,0153;-0,0049;37,58812500;36,81088833;12,96945572;545,70000000;
42,781657;-0,1163;0,1323;0,9541;0,0458;0,0092;-0,0012;37,58812500;36,81088833;12,96945572;545,70000000;
42,881848;-0,2892;0,0723;0,4990;0,0635;0,0110;-0,0079;37,58812500;36,81088833;12,96945572;545,70000000;
42,982546;0,8831;-0,0842;1,2363;0,0611;0,0153;-0,0031;37,58812500;36,81088833;12,96945572;545,70000000;
43,082947;0,0849;-0,1768;0,2997;0,0489;0,0067;0,0024;37,58812500;36,81088833;12,96945572;545,70000000;
43,183005;0,2345;-0,0499;-0,2140;0,0318;0,0122;-0,0006;37,58812500;36,81088833;12,96945572;545,70000000;
43,283792;-1,0568;-0,0412;-1,1224;0,0232;0,0134;-0,0037;37,58812500;36,81088833;12,96945572;545,70000000;
43,384402;-0,0507;-0,0775;-0,5329;0,0073;0,0208;-0,0116;37,58812500;36,81088833;12,96945572;545,70000000;
43,483815;0,4804;-0,0239;0,3859;-0,0031;0,0257;-0,0031;37,58812500;36,81088833;12,96945572;545,60000000;
43,584695;0,2205;-0,0010;0,6419;0,0067;0,0232;-0,0073;37,58812500;36,81104167;13,89492607;545,60000000;
43,685483;-0,5434;0,1219;0,2265;0,0195;0,0202;-0,0147;37,58812500;36,81104167;13,89492607;545,60000000;
43,784995;0,2053;0,1487;0,9904;0,0330;0,0159;-0,0098;37,58812500;36,81104167;13,89492607;545,60000000;
43,885626;-0,1637;0,2117;0,4001;0,0385;0,0189;-0,0098;37,58812500;36,81104167;13,89492607;545,60000000;
43,986523;-0,2756;0,0525;0,6266;0,0452;0,0177;-0,0122;37,58812500;36,81104167;13,89492607;545,60000000;
44,086724;0,0497;0,1266;0,0535;0,0379;0,0153;-0,0067;37,58812500;36,81104167;13,89492607;545,60000000;
44,187393;-0,3031;-0,0463;-0,3211;0,0305;0,0055;-0,0037;37,58812500;36,81104167;13,89492607;545,60000000;
44,288294;-0,2147;-0,2180;-0,4716;0,0134;0,0012;-0,0073;37,58812500;36,81104167;13,89492607;545,60000000;
44,388740;0,9562;-0,3017;0,3877;-0,0055;-0,0140;0,0006;37,58812500;36,81104167;13,89492607;545,60000000;
44,488677;-0,5731;-0,2235;-0,0289;-0,0110;-0,0140;-0,0043;37,58812500;36,81104167;13,89492607;545,20000000;
44,588995;0,0536;-0,2244;1,4501;-0,0024;-0,0214;-0,0031;37,58811667;36,81121000;14,89039898;545,20000000;
44,689838;-0,6704;-0,0066;0,3287;0,0159;-0,0153;-0,0049;37,58811667;36,81121000;14,89039898;545,20000000;
44,790497;0,0761;-0,1488;0,7949;0,0312;-0,0189;-0,0092;37,58811667;36,81121000;14,89039898;545,20000000;
44,890983;0,7799;-0,1073;1,7360;0,0299;-0,0122;0,0012;37,58811667;36,81121000;14,89039898;545,20000000;
44,990509;-0,8026;-0,2168;0,2157;0,0214;-0,0147;0,0000;37,58811667;36,81121000;14,89039898;545,20000000;
45,091573;0,2245;-0,2244;0,5218;0,0147;-0,0018;-0,0092;37,58811667;36,81121000;14,89039898;545,20000000;
45,191560;-0,0314;-0,1616;-0,4744;0,0086;0,0140;-0,0073;37,58811667;36,81121000;14,89039898;545,20000000;
45,292382;-0,0863;0,1553;-0,4665;0,0055;0,0281;-0,0031;37,58811667;36,81121000;14,89039898;545,20000000;
45,392854;0,6459;-0,2318;-0,0163;0,0000;0,0226;-0,0043;37,58811667;36,81121000;14,89039898;545,20000000;
45,492276;0,5006;0,1614;-0,2438;-0,0061;0,0202;-0,0006;37,58811667;36,81121000;14,89039898;545,30000000;
45,592934;-0,6487;0,0641;-0,4115;-0,0024;0,0379;0,0049;37,58811000;36,81138833;15,92910862;545,30000000;
45,693408;0,0551;-0,1177;0,5508;0,0092;0,0226;-0,0147;37,58811000;36,81138833;15,92910862;545,30000000;
45,794408;0,4430;-0,1512;0,2220;0,0122;0,0269;-0,0037;37,58811000;36,81138833;15,92910862;545,30000000;
45,899737;0,2567;-0,3166;0,3669;0,0098;0,0263;0,0049;37,58811000;36,81138833;15,92910862;545,30000000;
45,995337;1,0859;-0,1888;0,7721;0,0043;0,0159;0,0104;37,58811000;36,81138833;15,92910862;545,30000000;
46,095604;-2,3606;-0,2314;-2,7730;-0,0067;0,0244;-0,0024;37,58811000;36,81138833;15,92910862;545,30000000;
46,196294;0,1611;-0,2762;-0,4255;-0,0086;0,0012;-0,0128;37,58811000;36,81138833;15,92910862;545,30000000;
46,296714;0,0288;-0,0798;-0,3356;-0,0128;-0,0006;-0,0037;37,58811000;36,81138833;15,92910862;545,30000000;
46,397094;-0,2998;0,0193;-0,0142;0,0000;-0,0147;-0,0043;37,58811000;36,81138833;15,92910862;545,30000000;
46,496772;-0,1371;-0,0914;0,4294;0,0189;-0,0232;-0,0067;37,58811000;36,81138833;15,92910862;545,80000000;
46,597855;0,0249;-0,2733;0,7487;0,0287;-0,0269;-0,0061;37,58810000;36,81157333;16,46596336;545,80000000;
46,698327;0,5019;-0,2715;1,0768;0,0281;-0,0269;-0,0031;37,58810000;36,81157333;16,46596336;545,80000000;
46,798287;0,1396;-0,2196;0,4839;0,0202;-0,0189;-0,0012;37,58810000;36,81157333;16,46596336;545,80000000;
46,917873;-0,3419;-0,0361;-1,6416;0,0140;0,0024;-0,0006;37,58810000;36,81157333;16,46596336;545,80000000;
46,999252;-0,8187;-0,0688;-1,5348;0,0043;0,0079;-0,0043;37,58810000;36,81157333;16,46596336;545,80000000;
47,099815;0,3244;-0,1189;-0,1931;-0,0018;0,0067;-0,0086;37,58810000;36,81157333;16,46596336;545,80000000;
47,200182;0,0127;-0,0916;-0,1414;-0,0067;0,0079;-0,0067;37,58810000;36,81157333;16,46596336;545,80000000;
47,300518;0,0168;0,0104;0,2239;-0,0037;0,0079;-0,0031;37,58810000;36,81157333;16,46596336;545,80000000;
47,400589;0,2890;-0,0880;0,3527;0,0061;-0,0012;-0,0018;37,58810000;36,81157333;16,46596336;545,80000000;
47,500598;0,1532;-0,0073;0,5779;0,0140;-0,0006;0,0024;37,58810000;36,81157333;16,46596336;546,40000000;
47,601338;-0,1440;-0,0119;-0,3529;0,0159;-0,0018;0,0061;37,58809167;36,81176667;17,05892372;546,40000000;
47,701933;-0,5333;-0,0167;-0,8313;0,0134;-0,0018;0,0018;37,58809167;36,81176667;17,05892372;546,40000000;
47,802196;0,0923;-0,0107;-0,5188;0,0079;-0,0018;-0,0006;37,58809167;36,81176667;17,05892372;546,40000000;
47,902672;-0,2962;0,0750;-0,0134;-0,0067;-0,0018;0,0043;37,58809167;36,81176667;17,05892372;546,40000000;
48,002701;-0,4774;-0,0838;-0,3559;0,0049;-0,0049;0,0006;37,58809167;36,81176667;17,05892372;546,40000000;
48,103793;0,2524;-0,1843;0,7074;0,0061;-0,0018;0,0018;37,58809167;36,81176667;17,05892372;546,40000000;
48,203578;0,0542;-0,1944;0,5138;0,0140;0,0031;0,0110;37,58809167;36,81176667;17,05892372;546,40000000;
48,304653;0,0321;0,3921;-0,5917;0,0171;0,0153;0,0134;37,58809167;36,81176667;17,05892372;546,40000000;
48,405061;-1,8713;0,1175;-2,2923;0,0226;-0,0024;-0,0128;37,58809167;36,81176667;17,05892372;546,40000000;
48,504739;0,1458;-0,0790;-0,3636;0,0079;0,0220;-0,0165;37,58809167;36,81176667;17,05892372;547,10000000;
48,605873;1,3078;-0,1363;-0,1961;-0,0092;0,0086;0,0031;37,58808500;36,81196500;17,43878937;547,10000000;
48,706386;-0,0761;0,2259;-0,3417;-0,0018;0,0055;-0,0079;37,58808500;36,81196500;17,43878937;547,10000000;
48,806347;0,4418;-0,0162;1,0682;0,0055;0,0183;-0,0049;37,58808500;36,81196500;17,43878937;547,10000000;
48,907135;0,3960;-0,2702;0,1704;0,0092;0,0079;0,0018;37,58808500;36,81196500;17,43878937;547,10000000;
49,006894;-0,4595;-0,0125;-0,1738;0,0275;-0,0006;-0,0073;37,58808500;36,81196500;17,43878937;547,10000000;
49,108050;0,2070;-0,2118;1,4954;0,0269;-0,0122;-0,0092;37,58808500;36,81196500;17,43878937;547,10000000;
49,208708;0,1621;0,0087;0,5286;0,0263;-0,0140;0,0006;37,58808500;36,81196500;17,43878937;547,10000000;
49,309326;0,1585;-0,0013;-0,3519;0,0208;-0,0171;-0,0018;37,58808500;36,81196500;17,43878937;547,10000000;
49,409751;-0,6008;0,0361;-1,3859;0,0116;-0,0214;-0,0067;37,58808500;36,81196500;17,43878937;547,10000000;
49,509542;-0,2831;0,0185;-0,8768;0,0031;-0,0226;-0,0116;37,58808500;36,81196500;17,43878937;547,90000000;
49,610442;0,8589;0,0272;-0,0474;-0,0043;-0,0208;-0,0061;37,58807833;36,81216333;17,47121620;547,90000000;
49,711117;0,1663;0,0683;0,1542;-0,0031;-0,0202;-0,0037;37,58807833;36,81216333;17,47121620;547,90000000;
49,811472;-0,0468;0,1160;-0,4863;-0,0055;-0,0116;0,0049;37,58807833;36,81216333;17,47121620;547,90000000;
49,912117;-0,4061;-0,0592;-0,0756;0,0012;-0,0073;-0,0049;37,58807833;36,81216333;17,47121620;547,90000000;
50,011903;0,1989;-0,0248;0,2223;0,0043;-0,0024;-0,0073;37,58807833;36,81216333;17,47121620;547,90000000;
50,112797;0,6025;0,4433;2,4614;0,0024;-0,0024;-0,0110;37,58807833;36,81216333;17,47121620;547,90000000;
50,213457;0,1672;0,0559;1,1264;0,0086;0,0324;0,0079;37,58807833;36,81216333;17,47121620;547,90000000;
50,313624;-0,6825;-0,2084;-0,1727;0,0067;-0,0061;-0,0098;37,58807833;36,81216333;17,47121620;547,90000000;
50,414506;-0,3576;0,0287;0,0272;0,0079;0,0140;-0,0104;37,58807833;36,81216333;17,47121620;547,90000000;
50,514059;-1,3012;0,6223;-1,5820;0,0012;0,0220;-0,0061;37,58807833;36,81216333;17,47121620;547,70000000;
50,615188;-0,1574;1,0025;-3,5375;0,0012;-0,0049;-0,0397;37,58806667;36,81236333;17,79497719;547,70000000;
50,715835;0,5278;0,0131;-0,8436;-0,0055;0,0086;-0,0269;37,58806667;36,81236333;17,79497719;547,70000000;
50,816058;0,4027;0,0957;-1,2122;-0,0177;0,0153;0,0000;37,58806667;36,81236333;17,79497719;547,70000000;
50,916394;0,0843;-0,1332;-0,9966;-0,0147;0,0000;-0,0012;37,58806667;36,81236333;17,79497719;547,70000000;
51,016598;0,2381;-0,1195;0,4379;-0,0220;0,0104;0,0073;37,58806667;36,81236333;17,79497719;547,70000000;
51,117441;-1,1559;0,1335;-0,4271;-0,0031;0,0140;-0,0043;37,58806667;36,81236333;17,79497719;547,70000000;
51,218578;0,6203;-0,1445;-0,0997;0,0073;0,0122;-0,0012;37,58806667;36,81236333;17,79497719;547,70000000;
51,319277;0,5361;0,1890;-2,2195;0,0177;0,0354;0,0128;37,58806667;36,81236333;17,79497719;547,70000000;
51,419616;-0,6052;0,4597;-3,1251;0,0220;0,0244;-0,0018;37,58806667;36,81236333;17,79497719;547,70000000;
51,519276;1,2675;0,0810;-0,3366;0,0153;0,0275;-0,0024;37,58806667;36,81236333;17,79497719;548,40000000;
51,620151;0,4776;-0,0198;-0,5578;0,0031;0,0354;0,0067;37,58805833;36,81257000;18,30352211;548,40000000;
51,720762;-0,7459;-0,2331;-0,9553;0,0000;0,0214;-0,0012;37,58805833;36,81257000;18,30352211;548,40000000;
51,820754;0,0139;-0,0793;0,8364;0,0018;0,0183;0,0006;37,58805833;36,81257000;18,30352211;548,40000000;
51,921715;-0,2260;-0,0476;0,2431;0,0031;0,0098;0,0000;37,58805833;36,81257000;18,30352211;548,40000000;
52,021643;0,1412;-0,1065;0,2706;0,0104;-0,0031;-0,0031;37,58805833;36,81257000;18,30352211;548,40000000;
52,122297;-0,7959;0,0399;-0,2200;0,0128;-0,0024;0,0000;37,58805833;36,81257000;18,30352211;548,40000000;
52,222650;-0,3378;-0,1543;0,1628;0,0104;-0,0092;0,0000;37,58805833;36,81257000;18,30352211;548,40000000;
52,323147;0,2023;0,1551;0,9754;0,0128;-0,0153;0,0037;37,58805833;36,81257000;18,30352211;548,40000000;
52,423305;-0,2828;-0,1794;0,0439;0,0116;-0,0147;0,0018;37,58805833;36,81257000;18,30352211;548,40000000;
52,523636;0,1710;-0,2738;0,3483;0,0104;-0,0232;0,0043;37,58805833;36,81257000;18,30352211;549,00000000;
52,624562;0,0757;0,0345;0,2797;0,0024;-0,0122;0,0073;37,58805167;36,81277667;18,48213005;549,00000000;
52,724986;-0,0602;-0,0483;0,1688;-0,0012;-0,0104;-0,0006;37,58805167;36,81277667;18,48213005;549,00000000;
52,825243;0,5295;-0,0568;0,2649;-0,0031;-0,0092;0,0086;37,58805167;36,81277667;18,48213005;549,00000000;
52,926043;0,0243;0,0023;-0,6562;0,0031;-0,0037;0,0049;37,58805167;36,81277667;18,48213005;549,00000000;
53,026250;-0,2710;-0,0952;-0,7314;0,0104;-0,0018;-0,0018;37,58805167;36,81277667;18,48213005;549,00000000;
53,127094;0,5720;0,2323;0,0934;0,0104;0,0037;0,0024;37,58805167;36,81277667;18,48213005;549,00000000;
53,227609;0,0359;0,0477;-0,1004;0,0086;0,0061;0,0061;37,58805167;36,81277667;18,48213005;549,00000000;
53,328155;-0,0242;-0,0166;-0,0892;0,0128;0,0006;-0,0006;37,58805167;36,81277667;18,48213005;549,00000000;
53,428240;0,4396;-0,1719;-0,1493;0,0147;0,0073;-0,0012;37,58805167;36,81277667;18,48213005;549,00000000;
53,528307;0,3698;-0,1097;-0,0393;0,0110;0,0037;0,0012;37,58805167;36,81277667;18,48213005;549,60000000;
53,629068;-0,2943;-0,0575;-0,5024;0,0043;0,0067;0,0073;37,58804667;36,81298500;18,49963188;549,60000000;
53,729919;-0,9077;-0,0715;-0,4240;0,0049;0,0000;-0,0055;37,58804667;36,81298500;18,49963188;549,60000000;
53,830190;0,4384;-0,2459;0,5266;0,0018;-0,0055;-0,0049;37,58804667;36,81298500;18,49963188;549,60000000;
53,930544;0,2062;-0,1298;0,0259;0,0006;-0,0110;-0,0031;37,58804667;36,81298500;18,49963188;549,60000000;
54,041727;-0,1643;0,0983;-0,4015;0,0037;-0,0092;-0,0086;37,58804667;36,81298500;18,49963188;549,60000000;
54,131088;-0,2680;-0,0202;-0,4356;0,0110;-0,0183;-0,0171;37,58804667;36,81298500;18,49963188;549,60000000;
54,231937;0,5077;0,0240;0,0923;0,0024;-0,0104;-0,0073;37,58804667;36,81298500;18,49963188;549,60000000;
54,331989;0,0889;-0,1643;0,4439;0,0006;-0,0159;-0,0024;37,58804667;36,81298500;18,49963188;549,60000000;
54,432683;0,5369;0,0314;1,3597;-0,0031;-0,0079;0,0006;37,58804667;36,81298500;18,49963188;549,60000000;
54,532429;-0,0987;0,2876;0,4933;-0,0012;-0,0183;0,0000;37,58804667;36,81298500;18,49963188;550,00000000;
54,632709;-0,2521;0,1409;0,2738;0,0043;-0,0220;-0,0110;37,58804500;36,81319500;18,79353714;550,00000000;
54,733072;0,9657;0,0425;1,2401;0,0049;-0,0086;-0,0018;37,58804500;36,81319500;18,79353714;550,00000000;
54,833061;-0,5110;0,1637;-0,8797;0,0116;-0,0031;-0,0086;37,58804500;36,81319500;18,79353714;550,00000000;
54,934414;0,1971;-0,0513;0,2907;0,0165;0,0012;-0,0098;37,58804500;36,81319500;18,79353714;550,00000000;
55,034450;0,2658;-0,0935;0,3908;0,0092;0,0012;-0,0055;37,58804500;36,81319500;18,79353714;550,00000000;
55,134931;-0,2943;0,0749;-0,5010;0,0012;0,0067;-0,0043;37,58804500;36,81319500;18,79353714;550,00000000;
55,235491;-0,2685;-0,0145;-0,3733;-0,0055;0,0018;-0,0092;37,58804500;36,81319500;18,79353714;550,00000000;
55,335974;-0,1045;0,1894;0,1082;-0,0012;0,0067;-0,0079;37,58804500;36,81319500;18,79353714;550,00000000;
55,436268;0,1836;0,1260;0,1998;0,0031;-0,0018;-0,0055;37,58804500;36,81319500;18,79353714;550,00000000;
55,536788;-0,2688;-0,0004;-0,2187;0,0147;-0,0067;-0,0098;37,58804500;36,81319500;18,79353714;550,20000000;
55,637611;0,0590;-0,0829;0,2801;0,0189;-0,0061;-0,0165;37,58803667;36,81340833;18,87898254;550,20000000;
55,737867;0,4134;-0,2216;0,3227;0,0067;-0,0098;-0,0006;37,58803667;36,81340833;18,87898254;550,20000000;
55,838330;-0,5126;-0,1121;-0,5937;0,0006;-0,0171;-0,0018;37,58803667;36,81340833;18,87898254;550,20000000;
55,939307;0,3871;0,1221;0,2760;0,0024;-0,0086;-0,0122;37,58803667;36,81340833;18,87898254;550,20000000;
56,038929;0,4210;-0,1286;0,7146;-0,0018;0,0067;-0,0012;37,58803667;36,81340833;18,87898254;550,20000000;
56,139479;-0,3253;-0,0804;-0,3212;0,0024;0,0086;0,0006;37,58803667;36,81340833;18,87898254;550,20000000;
56,240076;0,7077;-0,1335;1,0318;0,0031;0,0098;-0,0079;37,58803667;36,81340833;18,87898254;550,20000000;
56,340179;-0,4561;-0,1938;2,2278;0,0092;0,0092;0,0067;37,58803667;36,81340833;18,87898254;550,20000000;
56,440483;-0,6987;0,0400;-0,5340;0,0116;0,0171;0,0012;37,58803667;36,81340833;18,87898254;550,20000000;
56,541638;-0,2885;0,0559;0,4881;0,0171;-0,0012;-0,0024;37,58803667;36,81340833;18,87898254;550,50000000;
56,641250;-0,2610;-0,0144;-1,5092;0,0134;0,0031;-0,0073;37,58803000;36,81362500;19,40502739;550,50000000;
56,741673;-0,2757;0,0254;-1,5276;0,0073;-0,0147;-0,0177;37,58803000;36,81362500;19,40502739;550,50000000;
56,842490;0,2703;-0,0342;-1,1923;0,0043;-0,0049;-0,0037;37,58803000;36,81362500;19,40502739;550,50000000;
56,942711;0,4869;-0,0618;-0,7834;-0,0098;-0,0024;0,0055;37,58803000;36,81362500;19,40502739;550,50000000;
57,043314;-0,0597;0,0615;-0,2965;-0,0147;0,0043;0,0153;37,58803000;36,81362500;19,40502739;550,50000000;
57,143090;-0,6741;-0,0855;-0,6146;-0,0116;0,0165;0,0092;37,58803000;36,81362500;19,40502739;550,50000000;
57,243847;-0,5258;-0,0543;-0,3207;0,0031;0,0037;0,0079;37,58803000;36,81362500;19,40502739;550,50000000;
57,344461;0,1458;-0,0083;-0,6511;0,0134;0,0079;0,0067;37,58803000;36,81362500;19,40502739;550,50000000;
57,444256;0,1167;-0,3430;0,0635;0,0128;0,0000;0,0067;37,58803000;36,81362500;19,40502739;550,50000000;
57,545036;0,1735;-0,2571;0,5331;0,0086;0,0000;0,0098;37,58803000;36,81362500;19,40502739;551,10000000;
57,646333;-0,1841;-0,0064;-0,7620;0,0098;-0,0018;0,0049;37,58802500;36,81384500;19,78746605;551,10000000;
57,746499;-0,1810;-0,1550;-0,3264;0,0134;-0,0128;-0,0031;37,58802500;36,81384500;19,78746605;551,10000000;
57,846878;0,8673;-0,0530;0,1064;0,0049;-0,0147;0,0092;37,58802500;36,81384500;19,78746605;551,10000000;
57,947266;0,5625;0,0250;-0,4366;0,0031;-0,0110;0,0024;37,58802500;36,81384500;19,78746605;551,10000000;
58,047385;0,0664;0,1352;-0,0686;0,0110;-0,0165;-0,0116;37,58802500;36,81384500;19,78746605;551,10000000;
58,147754;0,3156;-0,3294;0,1367;0,0055;-0,0037;0,0024;37,58802500;36,81384500;19,78746605;551,10000000;
58,248503;-0,2319;-0,4068;0,0921;0,0049;-0,0128;-0,0043;37,58802500;36,81384500;19,78746605;551,10000000;
58,348888;-0,0431;0,0747;0,2611;0,0061;-0,0018;-0,0061;37,58802500;36,81384500;19,78746605;551,10000000;
58,451879;0,8544;-0,1602;0,7911;0,0006;-0,0049;-0,0006;37,58802500;36,81384500;19,78746605;551,40000000;
58,550019;-0,3304;0,0247;-0,8992;-0,0006;0,0006;0,0000;37,58801833;36,81406833;19,77305412;551,40000000;
58,650391;0,0399;0,1560;0,1488;0,0067;0,0018;-0,0092;37,58801833;36,81406833;19,77305412;551,40000000;
58,750841;0,1560;-0,0545;1,0027;0,0061;-0,0061;-0,0006;37,58801833;36,81406833;19,77305412;551,40000000;
58,850914;-0,6894;0,0642;-0,2134;0,0220;-0,0006;-0,0049;37,58801833;36,81406833;19,77305412;551,40000000;
58,950975;0,4098;0,0575;0,9652;0,0403;-0,0049;-0,0055;37,58801833;36,81406833;19,77305412;551,40000000;
59,051896;0,3095;-0,2501;0,4535;0,0507;-0,0104;-0,0006;37,58801833;36,81406833;19,77305412;551,40000000;
59,152134;-0,8824;-0,2178;-1,1947;0,0397;-0,0031;0,0000;37,58801833;36,81406833;19,77305412;551,40000000;
59,253354;-0,5408;0,1405;-2,4105;0,0165;-0,0104;-0,0079;37,58801833;36,81406833;19,77305412;551,40000000;
59,352983;0,9251;-0,1336;-1,2595;-0,0250;-0,0140;0,0012;37,58801833;36,81406833;19,77305412;551,40000000;
59,452880;-0,0746;0,1340;-1,7850;-0,0458;-0,0098;-0,0037;37,58801833;36,81406833;19,77305412;551,60000000;
59,553982;0,5979;-0,0026;-0,2419;-0,0446;-0,0122;-0,0024;37,58800833;36,81429167;19,64025497;551,60000000;
59,654599;0,0533;0,1838;0,9162;-0,0299;-0,0055;0,0031;37,58800833;36,81429167;19,64025497;551,60000000;
59,754473;0,2958;-0,0441;1,7657;0,0018;0,0049;0,0043;37,58800833;36,81429167;19,64025497;551,60000000;
59,855554;-0,4886;-0,0000;0,6956;0,0348;0,0024;-0,0031;37,58800833;36,81429167;19,64025497;551,60000000;
59,955849;0,3714;-0,1385;-0,0147;0,0421;0,0140;-0,0086;37,58800833;36,81429167;19,64025497;551,60000000;
60,056199;0,4074;-0,6112;-0,4054;0,0232;0,0147;-0,0031;37,58800833;36,81429167;19,64025497;551,60000000;
60,165063;0,4320;-0,2658;-0,1483;0,0018;0,0226;-0,0073;37,58800833;36,81429167;19,64025497;551,60000000;
60,257025;-0,0122;-0,2148;-1,1363;-0,0037;0,0269;-0,0116;37,58800833;36,81429167;19,64025497;551,60000000;
60,357634;-0,3312;-0,1701;-0,6515;-0,0061;0,0171;-0,0067;37,58800833;36,81429167;19,64025497;551,60000000;
60,457550;-0,6123;0,0409;-0,4906;-0,0092;0,0195;-0,0092;37,58800833;36,81429167;19,64025497;551,80000000;
60,557890;-0,2255;-0,2871;0,0166;-0,0153;0,0183;-0,0116;37,58800167;36,81451167;19,27583313;551,80000000;
60,659014;0,0448;0,0516;0,2572;-0,0043;0,0159;-0,0092;37,58800167;36,81451167;19,27583313;551,80000000;
60,759399;0,1026;-0,0939;0,0760;0,0073;0,0140;-0,0061;37,58800167;36,81451167;19,27583313;551,80000000;
60,860057;-0,1464;-0,1566;-0,6179;0,0195;0,0067;-0,0098;37,58800167;36,81451167;19,27583313;551,80000000;
60,960334;0,0006;-0,1485;-0,3412;0,0232;0,0067;-0,0073;37,58800167;36,81451167;19,27583313;551,80000000;
61,060938;0,1660;-0,0964;-0,0218;0,0165;0,0024;-0,0031;37,58800167;36,81451167;19,27583313;551,80000000;
61,161559;-0,1953;0,0548;-0,5969;0,0110;-0,0061;-0,0037;37,58800167;36,81451167;19,27583313;551,80000000;
61,261857;0,1074;0,0536;0,0012;0,0067;-0,0110;-0,0049;37,58800167;36,81451167;19,27583313;551,80000000;
61,362346;-0,2099;-0,0766;0,1392;0,0018;-0,0092;0,0018;37,58800167;36,81451167;19,27583313;551,80000000;
61,462210;-0,4203;0,0103;-0,3319;0,0012;-0,0061;0,0018;37,58800167;36,81451167;19,27583313;552,00000000;
61,564965;-0,4471;0,0278;-0,6087;0,0055;-0,0134;-0,0061;37,58799833;36,81472500;19,58312225;552,00000000;
61,665797;0,3169;-0,1073;-0,3078;0,0086;-0,0134;-0,0031;37,58799833;36,81472500;19,58312225;552,00000000;
61,765675;0,3984;-0,0491;-0,0306;0,0086;-0,0073;-0,0049;37,58799833;36,81472500;19,58312225;552,00000000;
61,866549;0,2065;0,0218;-0,3519;0,0049;-0,0037;0,0018;37,58799833;36,81472500;19,58312225;552,00000000;
61,966973;-0,2923;-0,0843;-0,3335;0,0031;-0,0043;-0,0006;37,58799833;36,81472500;19,58312225;552,00000000;
62,067388;-0,2068;0,0797;-0,0446;-0,0024;0,0000;-0,0031;37,58799833;36,81472500;19,58312225;552,00000000;
62,167695;0,7008;-0,6431;0,3398;-0,0049;-0,0061;0,0043;37,58799833;36,81472500;19,58312225;552,00000000;
62,266831;0,1929;-0,4969;0,1502;-0,0049;-0,0079;0,0086;37,58799833;36,81472500;19,58312225;552,00000000;
62,367762;-0,4750;0,0174;-0,2771;0,0012;0,0018;-0,0006;37,58799833;36,81472500;19,58312225;552,00000000;
62,482433;0,5778;0,0196;0,3528;0,0012;-0,0012;-0,0024;37,58799833;36,81472500;19,58312225;552,10000000;
62,583044;0,1735;0,0333;-0,1797;0,0073;-0,0079;-0,0006;37,58799333;36,81493167;17,92468643;552,10000000;
62,682570;-0,3087;0,0197;0,2744;0,0037;-0,0128;0,0037;37,58799333;36,81493167;17,92468643;552,10000000;
62,782720;-0,0508;-0,1304;-0,2728;0,0012;-0,0153;0,0018;37,58799333;36,81493167;17,92468643;552,10000000;
62,882929;-0,1976;0,0495;-0,5837;0,0012;-0,0049;-0,0018;37,58799333;36,81493167;17,92468643;552,10000000;
62,982774;-0,3083;-0,1694;-0,3667;0,0000;-0,0043;-0,0061;37,58799333;36,81493167;17,92468643;552,10000000;
63,068577;-0,1095;-0,0824;0,0520;0,0006;0,0055;-0,0086;37,58799333;36,81493167;17,92468643;552,10000000;
63,168904;-0,0149;0,0502;0,3844;0,0018;0,0104;-0,0031;37,58799333;36,81493167;17,92468643;552,10000000;
63,269003;-0,0035;0,0580;-0,1207;0,0037;0,0177;-0,0067;37,58799333;36,81493167;17,92468643;552,10000000;
63,369203;-0,2478;0,0588;-0,2212;0,0067;0,0128;-0,0055;37,58799333;36,81493167;17,92468643;552,10000000;
63,469592;0,0601;-0,1060;-0,0743;0,0073;0,0171;-0,0049;37,58799333;36,81493167;17,92468643;552,30000000;
63,569820;-0,4230;-0,0808;-0,1880;0,0055;0,0183;-0,0024;37,58799167;36,81512833;16,83810806;552,30000000;
63,670012;-1,0056;0,0527;-0,3047;0,0031;0,0171;-0,0092;37,58799167;36,81512833;16,83810806;552,30000000;
63,770218;0,5159;-0,1395;-0,0346;-0,0031;0,0049;-0,0043;37,58799167;36,81512833;16,83810806;552,30000000;
63,871723;-0,2100;-0,1224;-0,3151;-0,0006;0,0086;-0,0061;37,58799167;36,81512833;16,83810806;552,30000000;
63,971803;1,0885;-1,2579;0,7010;-0,0092;-0,0073;-0,0049;37,58799167;36,81512833;16,83810806;552,30000000;
64,072424;-0,3408;0,1486;0,4513;0,0092;0,0189;-0,0061;37,58799167;36,81512833;16,83810806;552,30000000;
64,172703;-0,2318;0,0250;0,8969;0,0140;-0,0055;0,0000;37,58799167;36,81512833;16,83810806;552,30000000;
64,272902;-0,1181;-0,3169;0,2216;0,0153;-0,0134;-0,0018;37,58799167;36,81512833;16,83810806;552,30000000;
64,373625;0,4279;0,2298;-0,4193;0,0147;-0,0092;-0,0037;37,58799167;36,81512833;16,83810806;552,30000000;
64,473619;-0,9156;-0,2736;-0,9944;0,0122;-0,0079;-0,0012;37,58799167;36,81512833;16,83810806;552,60000000;
64,574697;0,1595;-0,3987;-0,3831;0,0079;0,0000;-0,0134;37,58799167;36,81531000;15,58167076;552,60000000;
64,674906;0,0774;-0,2551;-0,3464;-0,0049;-0,0031;-0,0104;37,58799167;36,81531000;15,58167076;552,60000000;
64,775951;-0,2305;-0,0107;-0,2795;-0,0067;-0,0018;-0,0061;37,58799167;36,81531000;15,58167076;552,60000000;
64,876116;0,1357;-0,0390;0,3318;-0,0061;-0,0067;-0,0055;37,58799167;36,81531000;15,58167076;552,60000000;
64,976571;-0,0259;-0,0081;0,3767;0,0043;-0,0043;-0,0079;37,58799167;36,81531000;15,58167076;552,60000000;
65,077484;-0,1116;0,1176;0,5877;0,0177;-0,0110;-0,0116;37,58799167;36,81531000;15,58167076;552,60000000;
65,178062;-0,0717;-0,0934;0,6470;0,0220;-0,0067;0,0012;37,58799167;36,81531000;15,58167076;552,60000000;
65,277876;-0,4467;-0,0504;0,3628;0,0281;-0,0153;-0,0092;37,58799167;36,81531000;15,58167076;552,60000000;
65,377828;0,4089;-0,1303;0,9101;0,0257;-0,0214;-0,0061;37,58799167;36,81531000;15,58167076;552,60000000;
65,478325;0,2164;-0,2257;0,0498;0,0128;-0,0165;0,0012;37,58799167;36,81531000;15,58167076;553,00000000;
65,579612;-0,3139;-0,0221;-1,0993;0,0067;-0,0104;-0,0031;37,58798667;36,81547667;14,11419773;553,00000000;
65,680074;0,1732;-0,1960;-0,3869;-0,0037;-0,0086;-0,0073;37,58798667;36,81547667;14,11419773;553,00000000;
65,780830;0,2815;-0,0823;0,1968;-0,0079;-0,0116;-0,0061;37,58798667;36,81547667;14,11419773;553,00000000;
65,881356;0,2608;0,0144;0,0799;-0,0079;-0,0086;-0,0031;37,58798667;36,81547667;14,11419773;553,00000000;
65,981894;0,1362;-0,0769;-0,0199;0,0012;-0,0104;-0,0067;37,58798667;36,81547667;14,11419773;553,00000000;
66,082701;0,0923;-0,1110;0,5966;0,0098;-0,0055;-0,0061;37,58798667;36,81547667;14,11419773;553,00000000;
66,182824;0,1102;0,0314;0,6215;0,0177;0,0049;-0,0018;37,58798667;36,81547667;14,11419773;553,00000000;
66,282754;-0,3928;-0,0176;-0,0635;0,0226;0,0006;-0,0104;37,58798667;36,81547667;14,11419773;553,00000000;
66,383149;0,1234;-0,2202;0,2186;0,0232;0,0055;-0,0073;37,58798667;36,81547667;14,11419773;553,00000000;
66,483034;0,0397;-0,3909;0,0617;0,0189;0,0012;-0,0037;37,58798667;36,81547667;14,11419773;553,10000000;
66,584107;0,3288;-0,2700;0,2040;0,0116;0,0031;-0,0037;37,58798000;36,81562500;12,57929611;553,10000000;
66,684018;0,1312;-0,0384;-0,2346;0,0061;-0,0079;0,0000;37,58798000;36,81562500;12,57929611;553,10000000;
66,784961;-0,4919;-0,0563;-0,3302;0,0055;-0,0079;-0,0031;37,58798000;36,81562500;12,57929611;553,10000000;
66,885635;-0,2774;-0,0231;-0,1326;0,0031;-0,0079;-0,0006;37,58798000;36,81562500;12,57929611;553,10000000;
66,985892;-0,0245;-0,0392;0,0452;0,0024;-0,0116;0,0000;37,58798000;36,81562500;12,57929611;553,10000000;
67,086375;0,0857;-0,1596;-0,1899;0,0049;-0,0110;-0,0031;37,58798000;36,81562500;12,57929611;553,10000000;
67,186714;0,4119;-0,0332;0,3331;0,0037;-0,0134;0,0006;37,58798000;36,81562500;12,57929611;553,10000000;
67,286614;-0,2085;-0,0897;-0,0932;0,0037;-0,0134;-0,0006;37,58798000;36,81562500;12,57929611;553,10000000;
67,387037;0,0533;-0,1574;-0,0932;0,0031;-0,0116;-0,0031;37,58798000;36,81562500;12,57929611;553,10000000;
67,487938;0,2029;-0,2154;0,3263;-0,0006;-0,0086;-0,0037;37,58798000;36,81562500;12,57929611;553,20000000;
67,588246;0,2325;-0,0945;0,2604;-0,0012;-0,0061;-0,0024;37,58797833;36,81575833;10,99806976;553,20000000;
67,689007;-0,1830;0,0312;-0,2164;0,0000;-0,0031;-0,0037;37,58797833;36,81575833;10,99806976;553,20000000;
67,789508;0,0763;-0,0943;0,3199;0,0000;-0,0049;-0,0031;37,58797833;36,81575833;10,99806976;553,20000000;
67,889999;0,0869;-0,0199;0,2572;0,0000;-0,0018;-0,0012;37,58797833;36,81575833;10,99806976;553,20000000;
67,990474;-0,1764;-0,0659;0,0134;0,0043;0,0000;-0,0006;37,58797833;36,81575833;10,99806976;553,20000000;
68,090946;-0,2148;-0,0580;0,0584;0,0031;0,0000;-0,0031;37,58797833;36,81575833;10,99806976;553,20000000;
68,191300;-0,1341;-0,1744;-0,2360;0,0055;0,0000;-0,0018;37,58797833;36,81575833;10,99806976;553,20000000;
68,291114;-0,3108;-0,0088;-0,2737;0,0067;0,0006;-0,0043;37,58797833;36,81575833;10,99806976;553,20000000;
68,392110;0,1112;-0,0085;0,0999;0,0061;0,0043;-0,0012;37,58797833;36,81575833;10,99806976;553,20000000;
68,492049;-0,6294;-0,0989;-0,6943;0,0061;-0,0024;-0,0043;37,58797833;36,81575833;10,99806976;553,30000000;
68,592877;-0,0416;-0,1013;-0,0549;0,0067;-0,0073;-0,0055;37,58797667;36,81586833;8,95719624;553,30000000;
68,693712;0,2529;0,0008;-0,0038;0,0043;0,0024;-0,0031;37,58797667;36,81586833;8,95719624;553,30000000;
68,793914;-0,0403;0,0060;0,1974;0,0043;-0,0049;-0,0049;37,58797667;36,81586833;8,95719624;553,30000000;
68,894310;0,0221;-0,0080;0,1084;0,0018;-0,0012;0,0006;37,58797667;36,81586833;8,95719624;553,30000000;
68,994761;0,0106;0,1146;-0,2244;0,0024;-0,0018;-0,0031;37,58797667;36,81586833;8,95719624;553,30000000;
69,095297;0,0448;-0,0186;0,1899;0,0024;0,0024;-0,0012;37,58797667;36,81586833;8,95719624;553,30000000;
69,195791;0,1141;0,0847;0,2831;0,0037;0,0031;-0,0018;37,58797667;36,81586833;8,95719624;553,30000000;
69,307671;-0,0540;-0,0440;0,5491;0,0073;-0,0037;-0,0024;37,58797667;36,81586833;8,95719624;553,30000000;
69,397857;0,0593;0,0435;0,2315;0,0098;0,0006;-0,0037;37,58797667;36,81586833;8,95719624;553,30000000;
69,497476;-0,0385;0,0086;0,1677;0,0122;-0,0018;-0,0031;37,58797667;36,81586833;8,95719624;553,70000000;
69,598253;-0,1437;-0,0908;-0,2391;0,0086;0,0000;-0,0049;37,58797833;36,81595833;7,20816994;553,70000000;
69,698809;-0,0414;-0,0412;-0,2027;0,0092;0,0012;-0,0037;37,58797833;36,81595833;7,20816994;553,70000000;
69,799261;-0,0875;0,0320;0,1309;0,0147;0,0043;-0,0043;37,58797833;36,81595833;7,20816994;553,70000000;
69,899716;-0,2050;-0,0434;0,0485;0,0171;-0,0079;-0,0037;37,58797833;36,81595833;7,20816994;553,70000000;
70,000424;0,1407;-0,0859;0,1294;0,0189;-0,0018;-0,0037;37,58797833;36,81595833;7,20816994;553,70000000;
70,100670;0,0175;-0,0587;-0,1135;0,0177;-0,0006;-0,0037;37,58797833;36,81595833;7,20816994;553,70000000;
70,201390;-0,0315;-0,0208;-0,2108;0,0079;-0,0012;-0,0073;37,58797833;36,81595833;7,20816994;553,70000000;
70,301972;-0,0355;-0,0543;-0,1167;-0,0012;-0,0024;-0,0092;37,58797833;36,81595833;7,20816994;553,70000000;
70,401951;-0,0041;-0,0793;0,1158;-0,0037;-0,0031;-0,0043;37,58797833;36,81595833;7,20816994;553,70000000;
70,502547;-0,0570;-0,0454;0,1595;-0,0024;-0,0037;-0,0061;37,58797833;36,81595833;7,20816994;554,30000000;
70,602683;-0,0281;0,0671;0,2406;0,0000;-0,0024;-0,0049;37,58798000;36,81602667;5,35362577;554,30000000;
70,703489;-0,0945;0,0142;0,2134;0,0055;-0,0031;-0,0006;37,58798000;36,81602667;5,35362577;554,30000000;
70,803752;-0,0446;-0,0398;0,1214;0,0092;-0,0006;-0,0018;37,58798000;36,81602667;5,35362577;554,30000000;
70,904328;-0,1250;-0,3430;0,0510;0,0104;-0,0024;-0,0006;37,58798000;36,81602667;5,35362577;554,30000000;
71,004771;-0,0403;-0,2393;0,0591;0,0037;0,0000;0,0006;37,58798000;36,81602667;5,35362577;554,30000000;
71,105007;0,0385;-0,0771;-0,2014;0,0031;-0,0024;0,0012;37,58798000;36,81602667;5,35362577;554,30000000;
71,205656;-0,0043;0,0146;-0,0832;0,0073;-0,0018;-0,0006;37,58798000;36,81602667;5,35362577;554,30000000;
71,305957;0,0197;-0,0279;-0,1449;0,0110;-0,0018;-0,0006;37,58798000;36,81602667;5,35362577;554,30000000;
71,406049;-0,0061;0,0177;0,0590;0,0128;-0,0031;-0,0006;37,58798000;36,81602667;5,35362577;554,30000000;
71,506899;0,0608;-0,0173;0,0686;0,0134;-0,0006;-0,0006;37,58798000;36,81602667;5,35362577;555,00000000;
71,607678;0,0354;0,1040;0,0726;0,0134;-0,0006;0,0006;37,58798500;36,81607167;3,53768587;555,00000000;
71,707854;0,0187;0,0512;0,0794;0,0147;-0,0006;-0,0012;37,58798500;36,81607167;3,53768587;555,00000000;
71,808412;-0,0817;0,1096;0,0575;0,0153;0,0006;-0,0006;37,58798500;36,81607167;3,53768587;555,00000000;
71,909067;-0,0706;0,1577;0,0641;0,0147;0,0012;-0,0018;37,58798500;36,81607167;3,53768587;555,00000000;
72,009099;0,0454;0,1045;0,0463;0,0128;0,0000;0,0006;37,58798500;36,81607167;3,53768587;555,00000000;
72,109747;0,0327;0,1383;-0,0556;0,0110;-0,0012;0,0012;37,58798500;36,81607167;3,53768587;555,00000000;
72,210202;0,0728;0,2885;0,0291;0,0104;-0,0024;-0,0012;37,58798500;36,81607167;3,53768587;555,00000000;
72,310600;-0,0026;0,2397;-0,0166;0,0128;-0,0031;0,0000;37,58798500;36,81607167;3,53768587;555,00000000;
72,411018;-0,0050;0,2788;-0,0489;0,0122;-0,0006;0,0000;37,58798500;36,81607167;3,53768587;555,00000000;
72,511374;-0,0661;0,0675;-0,0936;0,0140;-0,0031;0,0000;37,58798500;36,81607167;3,53768587;555,70000000;
72,611942;0,0581;-0,1300;-0,1646;0,0086;-0,0024;-0,0012;37,58799333;36,81609667;1,82932281;555,70000000;
72,712392;0,0785;-0,1315;-0,1163;0,0049;-0,0006;0,0012;37,58799333;36,81609667;1,82932281;555,70000000;
72,812690;0,0148;-0,2171;-0,0537;0,0018;0,0000;-0,0018;37,58799333;36,81609667;1,82932281;555,70000000;
72,913809;-0,0208;-0,1783;-0,0272;0,0024;-0,0006;0,0000;37,58799333;36,81609667;1,82932281;555,70000000;
73,014178;0,0185;-0,1512;0,0120;0,0018;-0,0012;-0,0006;37,58799333;36,81609667;1,82932281;555,70000000;
73,114407;0,0117;-0,1134;0,0400;0,0037;-0,0018;-0,0018;37,58799333;36,81609667;1,82932281;555,70000000;
73,214918;0,0103;0,1416;0,1081;0,0043;-0,0043;-0,0024;37,58799333;36,81609667;1,82932281;555,70000000;
73,315166;-0,1151;0,7566;0,1754;0,0134;-0,0018;-0,0018;37,58799333;36,81609667;1,82932281;555,70000000;
73,415396;-0,0780;0,3960;0,1189;0,0208;-0,0055;-0,0012;37,58799333;36,81609667;1,82932281;555,70000000;
73,515905;0,1131;0,3208;-0,0710;0,0208;-0,0018;-0,0024;37,58799333;36,81609667;1,82932281;556,10000000;
73,616691;0,0305;0,2117;-0,3024;0,0183;-0,0037;-0,0018;37,58799833;36,81610833;0,00000000;556,10000000;
73,717284;-0,0160;0,0568;-0,4721;0,0092;-0,0018;-0,0024;37,58799833;36,81610833;0,00000000;556,10000000;
73,817864;0,0679;0,0832;-0,3026;0,0031;-0,0006;-0,0006;37,58799833;36,81610833;0,00000000;556,10000000;
73,917958;0,0255;0,6118;0,1064;0,0031;-0,0018;-0,0012;37,58799833;36,81610833;0,00000000;556,10000000;
74,018397;-0,0389;0,2511;-0,0217;0,0092;-0,0006;-0,0018;37,58799833;36,81610833;0,00000000;556,10000000;
74,119288;0,0576;-0,2269;-0,2764;0,0073;0,0018;-0,0018;37,58799833;36,81610833;0,00000000;556,10000000;
74,219426;0,0081;0,0463;-0,1000;0,0049;0,0012;-0,0037;37,58799833;36,81610833;0,00000000;556,10000000;
74,319558;-0,0631;0,2152;-0,0059;0,0073;-0,0012;-0,0006;37,58799833;36,81610833;0,00000000;556,10000000;
74,420338;-0,0159;-0,0801;-0,2030;0,0079;0,0012;-0,0006;37,58799833;36,81610833;0,00000000;556,10000000;
74,520401;-0,0076;-0,1169;-0,2344;0,0043;0,0000;-0,0012;37,58799833;36,81610833;0,00000000;556,10000000;
74,620657;0,0142;0,1154;-0,0502;0,0067;-0,0018;-0,0024;37,58799833;36,81610833;0,00000000;556,10000000;
74,721461;-0,0300;-0,0014;-0,1025;0,0073;-0,0006;-0,0024;37,58799833;36,81610833;0,00000000;556,10000000;
74,822011;-0,0013;-0,1286;-0,1887;0,0043;-0,0024;-0,0012;37,58799833;36,81610833;0,00000000;556,10000000;
74,922625;-0,0351;0,0178;-0,0765;0,0061;-0,0018;-0,0031;37,58799833;36,81610833;0,00000000;556,10000000;
75,022816;0,0241;0,0134;-0,0715;0,0067;-0,0018;-0,0024;37,58799833;36,81610833;0,00000000;556,10000000;
75,123152;-0,0005;-0,0783;-0,1719;0,0073;-0,0006;-0,0031;37,58799833;36,81610833;0,00000000;556,10000000;
75,224008;0,0024;-0,0220;-0,1098;0,0055;-0,0018;-0,0031;37,58799833;36,81610833;0,00000000;556,10000000;
75,324277;-0,0272;0,0187;-0,1049;0,0061;-0,0006;-0,0024;37,58799833;36,81610833;0,00000000;556,10000000;
75,439271;0,0018;-0,0748;-0,1358;0,0061;-0,0012;-0,0031;37,58799833;36,81610833;0,00000000;556,10000000;
75,525399;0,0096;-0,0601;-0,1144;0,0055;0,0000;-0,0018;37,58799833;36,81610833;0,00000000;556,10000000;
75,625809;0,0112;-0,0017;-0,0641;0,0073;-0,0012;-0,0018;37,58799833;36,81610833;0,00000000;556,10000000;
75,726412;-0,0011;-0,0536;-0,1118;0,0067;-0,0006;-0,0018;37,58799833;36,81610833;0,00000000;556,10000000;
75,826734;-0,0128;-0,0726;-0,1070;0,0049;-0,0006;-0,0024;37,58799833;36,81610833;0,00000000;556,10000000;
75,926940;-0,0061;-0,0155;-0,0999;0,0000;0,0012;-0,0018;37,58799833;36,81610833;0,00000000;556,10000000;
76,027484;0,0263;-0,0374;-0,1071;0,0000;-0,0006;-0,0006;37,58799833;36,81610833;0,00000000;556,10000000;
76,127859;-0,0054;-0,0446;-0,1335;-0,0006;0,0012;-0,0012;37,58799833;36,81610833;0,00000000;556,10000000;
76,228237;-0,0092;-0,0177;-0,0976;-0,0012;-0,0006;0,0012;37,58799833;36,81610833;0,00000000;556,10000000;
76,328841;-0,0061;-0,0283;-0,1311;0,0006;-0,0006;0,0000;37,58799833;36,81610833;0,00000000;556,10000000;
76,429089;-0,0160;-0,0330;-0,1001;-0,0018;0,0006;0,0006;37,58799833;36,81610833;0,00000000;556,10000000;
76,528800;-0,0247;-0,0252;-0,1145;0,0012;0,0012;0,0000;37,58799833;36,81610833;0,00000000;556,10000000;
76,629953;0,0268;-0,0023;-0,1313;0,0000;0,0006;0,0012;37,58799833;36,81610833;0,00000000;556,10000000;
76,730188;-0,0042;-0,0418;-0,1313;-0,0018;-0,0006;-0,0006;37,58799833;36,81610833;0,00000000;556,10000000;
76,830815;-0,0052;-0,0298;-0,1600;-0,0024;0,0000;-0,0018;37,58799833;36,81610833;0,00000000;556,10000000;
76,931205;-0,0316;-0,0334;-0,1194;-0,0012;-0,0012;0,0006;37,58799833;36,81610833;0,00000000;556,10000000;
77,031730;-0,0486;-0,0129;-0,0884;-0,0024;-0,0031;-0,0006;37,58799833;36,81610833;0,00000000;556,10000000;
77,132616;-0,0074;-0,0091;-0,1267;-0,0024;0,0000;0,0000;37,58799833;36,81610833;0,00000000;556,10000000;
77,232884;0,0205;-0,0342;-0,1747;-0,0012;-0,0031;-0,0012;37,58799833;36,81610833;0,00000000;556,10000000;
77,333322;0,0188;-0,0326;-0,0815;0,0000;-0,0043;-0,0006;37,58799833;36,81610833;0,00000000;556,10000000;
77,433645;0,0250;-0,0239;-0,0577;-0,0018;-0,0012;0,0006;37,58799833;36,81610833;0,00000000;556,10000000;
77,533786;0,0433;-0,0113;-0,1224;0,0000;-0,0012;0,0018;37,58799833;36,81610833;0,00000000;556,10000000;
77,634699;0,0001;-0,0081;-0,1177;-0,0006;-0,0012;0,0012;37,58799833;36,81610833;0,00000000;556,10000000;
77,735417;0,0054;0,0069;-0,1129;-0,0012;0,0000;0,0006;37,58799833;36,81610833;0,00000000;556,10000000;
77,835861;0,0039;0,0123;-0,1344;0,0000;0,0006;-0,0012;37,58799833;36,81610833;0,00000000;556,10000000;
77,936611;-0,0151;0,0031;-0,1560;-0,0012;0,0006;0,0000;37,58799833;36,81610833;0,00000000;556,10000000;
78,036958;0,0058;0,0047;-0,2374;-0,0043;0,0024;-0,0006;37,58799833;36,81610833;0,00000000;556,10000000;
78,137433;-0,0170;0,0494;-0,2637;-0,0049;-0,0018;0,0000;37,58799833;36,81610833;0,00000000;556,10000000;
78,237498;0,0033;0,0010;-0,2493;-0,0055;0,0000;-0,0006;37,58799833;36,81610833;0,00000000;556,10000000;
78,337849;0,0063;0,0048;-0,2183;-0,0104;0,0000;0,0000;37,58799833;36,81610833;0,00000000;556,10000000;
78,438219;0,0369;0,0108;-0,1300;-0,0098;-0,0012;0,0006;37,58799833;36,81610833;0,00000000;556,10000000;
78,538612;0,0568;-0,0251;0,0109;-0,0092;0,0000;-0,0012;37,58799833;36,81610833;0,00000000;556,10000000;
78,639362;0,0655;-0,0552;0,1208;-0,0067;0,0006;-0,0012;37,58799833;36,81610833;0,00000000;556,10000000;
78,739828;0,0269;-0,0736;0,0725;-0,0031;0,0018;0,0012;37,58799833;36,81610833;0,00000000;556,10000000;
78,840033;0,0180;-0,0603;-0,0259;0,0024;0,0024;-0,0012;37,58799833;36,81610833;0,00000000;556,10000000;
78,940633;-0,0146;0,0035;-0,0928;0,0043;0,0049;-0,0012;37,58799833;36,81610833;0,00000000;556,10000000;
79,041306;0,0207;0,0255;-0,1476;0,0037;0,0037;-0,0006;37,58799833;36,81610833;0,00000000;556,10000000;
79,141639;-0,0118;0,0210;-0,1474;0,0024;0,0031;-0,0006;37,58799833;36,81610833;0,00000000;556,10000000;
79,242252;0,0092;0,0459;-0,1543;0,0018;0,0018;0,0006;37,58799833;36,81610833;0,00000000;556,10000000;
79,342140;-0,0021;0,0163;-0,1828;0,0006;0,0012;0,0006;37,58799833;36,81610833;0,00000000;556,10000000;
79,442358;-0,0292;-0,0084;-0,1444;0,0000;0,0000;0,0006;37,58799833;36,81610833;0,00000000;556,10000000;
79,542833;-0,0040;-0,0054;-0,1276;-0,0018;0,0000;0,0006;37,58799833;36,81610833;0,00000000;556,10000000;
79,643451;-0,0115;-0,0045;-0,1205;-0,0012;-0,0006;0,0000;37,58799833;36,81610833;0,00000000;556,10000000;
79,743866;-0,0192;-0,0117;-0,0918;0,0000;0,0006;-0,0006;37,58799833;36,81610833;0,00000000;556,10000000;
79,844477;0,0210;-0,0167;-0,0942;0,0012;-0,0006;-0,0006;37,58799833;36,81610833;0,00000000;556,10000000;
79,944326;0,0341;0,0048;-0,1014;-0,0006;-0,0012;-0,0012;37,58799833;36,81610833;0,00000000;556,10000000;
80,044842;0,0040;0,0026;-0,1039;0,0000;-0,0006;0,0006;37,58799833;36,81610833;0,00000000;556,10000000;
80,145519;0,0127;-0,0118;-0,1279;0,0000;0,0000;-0,0006;37,58799833;36,81610833;0,00000000;556,10000000;
80,246565;-0,0113;-0,0086;-0,1159;-0,0006;-0,0006;0,0006;37,58799833;36,81610833;0,00000000;556,10000000;
80,346726;0,0077;-0,0078;-0,0968;-0,0012;0,0000;0,0006;37,58799833;36,81610833;0,00000000;556,10000000;
80,446942;0,0079;-0,0066;-0,1207;-0,0018;0,0000;0,0006;37,58799833;36,81610833;0,00000000;556,10000000;
80,547622;-0,0182;0,0087;-0,1160;-0,0012;0,0000;0,0000;37,58799833;36,81610833;0,00000000;556,10000000;
80,648253;-0,0065;0,0047;-0,0992;-0,0006;0,0006;0,0012;37,58799833;36,81610833;0,00000000;556,10000000;
80,748634;-0,0213;-0,0045;-0,1352;-0,0012;-0,0006;0,0006;37,58799833;36,81610833;0,00000000;556,10000000;
80,848989;0,0504;-0,0060;-0,1113;-0,0012;0,0000;-0,0006;37,58799833;36,81610833;0,00000000;556,10000000;
80,949743;-0,0026;0,0255;-0,1400;-0,0012;-0,0006;-0,0006;37,58799833;36,81610833;0,00000000;556,10000000;
81,049721;0,0013;0,0018;-0,1041;-0,0018;-0,0012;-0,0018;37,58799833;36,81610833;0,00000000;556,10000000;
81,150473;0,0128;0,0268;-0,1090;0,0000;-0,0006;-0,0006;37,58799833;36,81610833;0,00000000;556,10000000;
81,250907;0,0381;0,0246;-0,1066;-0,0012;-0,0012;-0,0012;37,58799833;36,81610833;0,00000000;556,10000000;
81,350857;0,0084;-0,0015;-0,1115;-0,0012;-0,0006;0,0006;37,58799833;36,81610833;0,00000000;556,10000000;
81,451120;0,0035;-0,0406;-0,0732;0,0006;0,0006;0,0000;37,58799833;36,81610833;0,00000000;556,10000000;
81,559061;-0,0037;0,0466;-0,0780;0,0012;-0,0012;0,0006;37,58799833;36,81610833;0,00000000;556,10000000;
81,652133;0,0127;0,0578;-0,1114;0,0000;-0,0012;0,0000;37,58799833;36,81610833;0,00000000;556,10000000;
81,752809;-0,0258;0,0056;-0,1521;0,0000;0,0000;-0,0012;37,58799833;36,81610833;0,00000000;556,10000000;
81,853573;0,0244;0,0262;-0,1066;-0,0012;0,0000;0,0000;37,58799833;36,81610833;0,00000000;556,10000000;
81,954080;0,0241;0,0089;-0,1091;-0,0031;0,0006;-0,0012;37,58799833;36,81610833;0,00000000;556,10000000;
82,054387;0,0177;0,0827;-0,0300;0,0006;-0,0006;0,0018;37,58799833;36,81610833;0,00000000;556,10000000;
82,155079;-0,0031;0,2012;-0,0532;0,0012;-0,0012;0,0000;37,58799833;36,81610833;0,00000000;556,10000000;
82,255239;0,1023;0,3643;0,0705;0,0049;-0,0012;-0,0006;37,58799833;36,81610833;0,00000000;556,10000000;
82,355815;0,0716;0,6559;0,2134;0,0092;-0,0006;0,0012;37,58799833;36,81610833;0,00000000;556,10000000;
82,455805;0,0536;0,6538;0,1371;0,0128;0,0000;0,0000;37,58799833;36,81610833;0,00000000;556,10000000;
82,556042;0,0420;0,4893;-0,0423;0,0171;-0,0018;0,0012;37,58799833;36,81610833;0,00000000;556,10000000;
82,656575;0,0272;0,2331;-0,2373;0,0128;0,0000;0,0000;37,58799833;36,81610833;0,00000000;556,10000000;
82,757566;0,0430;0,1368;-0,3697;0,0055;-0,0006;0,0006;37,58799833;36,81610833;0,00000000;556,10000000;
82,858003;-0,0127;-0,0011;-0,3044;-0,0049;0,0012;0,0006;37,58799833;36,81610833;0,00000000;556,10000000;
82,958449;-0,0014;-0,0969;-0,0505;-0,0079;0,0006;0,0031;37,58799833;36,81610833;0,00000000;556,10000000;
83,058485;0,0073;-0,0452;0,0428;-0,0086;0,0024;0,0012;37,58799833;36,81610833;0,00000000;556,10000000;
83,159381;-0,0050;-0,1590;0,1758;-0,0079;0,0006;0,0018;37,58799833;36,81610833;0,00000000;556,10000000;
83,259809;-0,0215;-0,1467;0,2385;-0,0037;0,0000;0,0018;37,58799833;36,81610833;0,00000000;556,10000000;
83,359931;-0,0129;-0,1972;0,1277;0,0006;-0,0018;0,0006;37,58799833;36,81610833;0,00000000;556,10000000;
83,459882;0,0533;-0,1429;-0,0273;0,0037;-0,0006;0,0012;37,58799833;36,81610833;0,00000000;556,10000000;
83,560854;0,0484;-0,1739;-0,0939;0,0024;-0,0012;0,0018;37,58799833;36,81610833;0,00000000;556,10000000;
83,660885;0,0749;-0,1824;0,0260;0,0012;0,0012;0,0012;37,58799833;36,81610833;0,00000000;556,10000000;
83,761850;-0,0610;-0,1304;-0,0958;-0,0018;0,0018;0,0012;37,58799833;36,81610833;0,00000000;556,10000000;
83,862471;0,0163;-0,1104;-0,0509;-0,0043;0,0024;0,0006;37,58799833;36,81610833;0,00000000;556,10000000;
83,962742;-0,0147;-0,0890;-0,0088;-0,0024;0,0024;0,0031;37,58799833;36,81610833;0,00000000;556,10000000;
84,063411;-0,0483;-0,0656;0,0201;0,0000;0,0024;0,0012;37,58799833;36,81610833;0,00000000;556,10000000;
84,164051;0,0005;-0,0494;0,0186;0,0018;0,0018;0,0018;37,58799833;36,81610833;0,00000000;556,10000000;
84,264368;-0,0477;-0,0262;-0,0828;0,0024;0,0006;0,0018;37,58799833;36,81610833;0,00000000;556,10000000;
84,364799;-0,0500;-0,0161;-0,1023;0,0024;-0,0006;0,0018;37,58799833;36,81610833;0,00000000;556,10000000;
84,464596;-0,0724;-0,0699;-0,1266;-0,0006;-0,0018;0,0031;37,58799833;36,81610833;0,00000000;558,50000000;
84,565697;-0,0375;-0,0329;-0,0888;0,0018;-0,0049;0,0012;37,58801500;36,81613833;0,00000000;558,50000000;
84,665620;-0,0235;-0,0318;-0,0434;0,0018;-0,0061;0,0018;37,58801500;36,81613833;0,00000000;558,50000000;
84,766123;0,0253;-0,0451;-0,1083;0,0024;-0,0043;0,0049;37,58801500;36,81613833;0,00000000;558,50000000;
84,866256;-0,0299;0,0204;-0,1326;0,0006;-0,0067;0,0037;37,58801500;36,81613833;0,00000000;558,50000000;
84,967087;0,0828;-0,0544;-0,0011;-0,0012;-0,0043;0,0037;37,58801500;36,81613833;0,00000000;558,50000000;
85,067448;0,0586;-0,0106;-0,0181;0,0012;-0,0012;0,0049;37,58801500;36,81613833;0,00000000;558,50000000;
85,167969;0,0106;0,0679;-0,0665;-0,0006;-0,0031;0,0037;37,58801500;36,81613833;0,00000000;558,50000000;
85,268605;0,0456;0,0241;-0,2126;0,0018;-0,0006;0,0012;37,58801500;36,81613833;0,00000000;558,50000000;
85,368841;-0,0497;0,0349;-0,1810;0,0006;-0,0012;0,0018;37,58801500;36,81613833;0,00000000;558,50000000;
85,469477;0,1115;0,0066;0,0873;0,0006;-0,0024;0,0037;37,58801500;36,81613833;0,00000000;558,60000000;
85,570100;-0,0167;0,0251;0,0657;0,0000;-0,0043;0,0049;37,58801500;36,81617500;0,00000000;558,60000000;
85,670099;-0,1101;0,0086;0,0345;-0,0012;-0,0055;0,0049;37,58801500;36,81617500;0,00000000;558,60000000;
85,771013;-0,1758;0,0573;-0,2190;0,0012;-0,0006;0,0067;37,58801500;36,81617500;0,00000000;558,60000000;
85,871355;0,0681;-0,0197;-0,0869;0,0000;0,0024;0,0067;37,58801500;36,81617500;0,00000000;558,60000000;
85,971768;-0,0227;0,0081;0,1071;-0,0006;0,0006;0,0067;37,58801500;36,81617500;0,00000000;558,60000000;
86,071754;-0,0692;-0,0083;-0,0865;0,0006;-0,0006;0,0049;37,58801500;36,81617500;0,00000000;558,60000000;
86,176388;-0,0145;0,0926;-0,0091;0,0012;0,0000;0,0067;37,58801500;36,81617500;0,00000000;558,60000000;
86,275322;-0,1070;0,0386;-0,1516;0,0012;-0,0006;0,0061;37,58801500;36,81617500;0,00000000;558,60000000;
86,375806;-0,0501;0,0560;-0,2198;0,0006;-0,0024;0,0067;37,58801500;36,81617500;0,00000000;558,60000000;
86,475539;0,0505;-0,0136;-0,0869;0,0006;-0,0018;0,0049;37,58801500;36,81617500;0,00000000;558,70000000;
86,576709;-0,0934;0,0125;-0,0893;0,0024;-0,0061;0,0073;37,58801333;36,81622333;4,74419451;558,70000000;
86,676550;0,1067;0,0230;0,0620;0,0024;-0,0043;0,0079;37,58801333;36,81622333;4,74419451;558,70000000;
86,778355;0,1070;0,0437;-0,0980;0,0000;-0,0031;0,0067;37,58801333;36,81622333;4,74419451;558,70000000;
86,878968;0,0512;0,0094;-0,0499;0,0024;-0,0031;0,0079;37,58801333;36,81622333;4,74419451;558,70000000;
86,979203;0,0026;0,0540;0,0674;-0,0012;0,0012;0,0073;37,58801333;36,81622333;4,74419451;558,70000000;
87,079767;0,0129;0,0381;0,2324;-0,0031;0,0012;0,0079;37,58801333;36,81622333;4,74419451;558,70000000;
87,180190;-0,0186;0,0001;0,0857;-0,0049;0,0000;0,0092;37,58801333;36,81622333;4,74419451;558,70000000;
87,280656;-0,1291;-0,0347;-0,0294;-0,0043;-0,0006;0,0043;37,58801333;36,81622333;4,74419451;558,70000000;
87,380645;-0,1835;-0,0653;-0,1847;-0,0067;0,0006;0,0092;37,58801333;36,81622333;4,74419451;558,70000000;
87,480608;-0,1239;0,0553;-0,0621;-0,0055;0,0006;0,0073;37,58801333;36,81622333;4,74419451;558,90000000;
87,581757;0,1555;-0,0463;0,2226;-0,0049;-0,0031;0,0067;37,58801333;36,81628333;5,80040455;558,90000000;
87,682162;0,1091;0,0058;-0,0820;-0,0018;-0,0061;0,0049;37,58801333;36,81628333;5,80040455;558,90000000;
87,782468;-0,0364;-0,0159;-0,2549;-0,0031;-0,0012;0,0067;37,58801333;36,81628333;5,80040455;558,90000000;
87,883342;-0,1508;0,0415;-0,3489;-0,0043;-0,0006;0,0067;37,58801333;36,81628333;5,80040455;558,90000000;
87,984158;0,0420;-0,0205;0,0221;-0,0006;-0,0006;0,0043;37,58801333;36,81628333;5,80040455;558,90000000;
88,084395;0,1714;-0,0126;0,0916;0,0006;-0,0012;0,0079;37,58801333;36,81628333;5,80040455;558,90000000;
88,184933;-0,1447;-0,0114;-0,4156;0,0006;0,0006;0,0037;37,58801333;36,81628333;5,80040455;558,90000000;
88,285486;0,0199;0,0424;0,0450;0,0006;0,0012;0,0037;37,58801333;36,81628333;5,80040455;558,90000000;
88,385937;-0,0216;-0,0845;0,2705;-0,0024;0,0012;0,0055;37,58801333;36,81628333;5,80040455;558,90000000;
88,485777;-0,3619;-0,0640;0,2346;0,0012;0,0006;0,0043;37,58801333;36,81628333;5,80040455;559,20000000;
88,586581;0,2015;-0,0978;0,1964;-0,0018;-0,0012;0,0049;37,58801333;36,81635500;6,94514704;559,20000000;
88,697110;-0,2953;0,0628;-0,2561;-0,0012;-0,0018;0,0061;37,58801333;36,81635500;6,94514704;559,20000000;
88,786821;-0,2117;0,0092;-0,3349;-0,0018;-0,0018;0,0049;37,58801333;36,81635500;6,94514704;559,20000000;
88,888178;0,2411;0,0884;0,1463;-0,0006;-0,0043;0,0049;37,58801333;36,81635500;6,94514704;559,20000000;
88,988768;0,0172;0,0718;-0,3063;0,0012;-0,0043;0,0031;37,58801333;36,81635500;6,94514704;559,20000000;
89,088942;0,1822;0,0419;0,0863;0,0018;-0,0024;0,0055;37,58801333;36,81635500;6,94514704;559,20000000;
89,189974;-0,0052;0,0076;-0,0071;0,0031;0,0012;0,0024;37,58801333;36,81635500;6,94514704;559,20000000;
89,290305;0,1773;0,0075;0,1940;0,0018;0,0018;0,0024;37,58801333;36,81635500;6,94514704;559,20000000;
89,390704;0,0006;-0,1830;0,2733;0,0000;0,0037;0,0043;37,58801333;36,81635500;6,94514704;559,20000000;
89,491433;-0,1179;0,0790;0,0846;-0,0012;0,0031;0,0031;37,58801333;36,81635500;6,94514704;559,50000000;
89,592015;-0,0198;-0,0026;-0,0587;-0,0018;0,0018;0,0006;37,58801167;36,81644167;8,04871178;559,50000000;
89,692486;-0,0582;0,0120;-0,2386;-0,0061;0,0043;0,0043;37,58801167;36,81644167;8,04871178;559,50000000;
89,793317;-0,3133;-0,0058;-0,4090;-0,0043;-0,0031;0,0000;37,58801167;36,81644167;8,04871178;559,50000000;
89,893914;-0,0357;-0,0336;0,0429;-0,0061;-0,0037;0,0043;37,58801167;36,81644167;8,04871178;559,50000000;
89,994093;0,2563;-0,1432;0,3079;-0,0061;-0,0024;0,0073;37,58801167;36,81644167;8,04871178;559,50000000;
90,095182;-0,4028;0,0166;-0,3675;-0,0037;-0,0018;0,0043;37,58801167;36,81644167;8,04871178;559,50000000;
90,194902;-0,0686;-0,0220;-0,0780;-0,0012;-0,0031;0,0049;37,58801167;36,81644167;8,04871178;559,50000000;
90,295673;-0,0258;0,0577;-0,2889;-0,0018;0,0006;0,0067;37,58801167;36,81644167;8,04871178;559,50000000;
90,396217;0,1097;-0,0725;-0,0207;0,0012;-0,0043;0,0018;37,58801167;36,81644167;8,04871178;559,50000000;
90,495834;-0,0745;-0,1093;-0,3415;-0,0012;-0,0012;0,0055;37,58801167;36,81644167;8,04871178;560,10000000;
90,596778;0,1669;-0,0796;0,2258;-0,0037;-0,0043;0,0061;37,58801333;36,81653833;9,23205757;560,10000000;
90,697345;-0,0505;-0,1590;-0,3568;-0,0055;0,0031;0,0073;37,58801333;36,81653833;9,23205757;560,10000000;
90,797430;-0,1751;0,1668;-0,6577;-0,0049;-0,0024;0,0012;37,58801333;36,81653833;9,23205757;560,10000000;
90,898565;0,2987;-0,0415;0,1844;-0,0079;0,0012;0,0079;37,58801333;36,81653833;9,23205757;560,10000000;
90,999010;0,1224;0,0627;0,0775;-0,0092;-0,0006;0,0049;37,58801333;36,81653833;9,23205757;560,10000000;
91,099668;0,2661;-0,0810;0,3108;-0,0012;0,0006;0,0073;37,58801333;36,81653833;9,23205757;560,10000000;
91,198964;-0,0171;-0,0784;-0,0298;0,0006;0,0037;0,0049;37,58801333;36,81653833;9,23205757;560,10000000;
91,299373;0,2729;-0,0491;0,1046;0,0006;0,0067;0,0061;37,58801333;36,81653833;9,23205757;560,10000000;
91,400750;0,0813;0,1205;-0,1097;-0,0043;0,0049;0,0086;37,58801333;36,81653833;9,23205757;560,10000000;
91,500784;-0,4757;0,0895;-0,6237;-0,0043;0,0086;0,0031;37,58801333;36,81653833;9,23205757;560,70000000;
91,601451;-0,3478;-0,1287;-0,0115;-0,0079;0,0031;0,0024;37,58801500;36,81665000;10,37474155;560,70000000;
91,703144;0,2049;0,0057;0,2723;-0,0134;0,0110;0,0049;37,58801500;36,81665000;10,37474155;560,70000000;
91,802932;0,5265;-0,1172;0,6899;-0,0122;0,0140;0,0073;37,58801500;36,81665000;10,37474155;560,70000000;
91,903961;-0,1771;0,2105;-0,0455;-0,0055;0,0147;0,0037;37,58801500;36,81665000;10,37474155;560,70000000;
92,004225;-0,1950;-0,0705;0,3006;0,0055;0,0153;0,0043;37,58801500;36,81665000;10,37474155;560,70000000;
92,104766;-0,4236;-0,0059;-0,3579;0,0153;0,0006;-0,0018;37,58801500;36,81665000;10,37474155;560,70000000;
92,205376;0,2227;0,0907;0,2063;0,0177;-0,0012;0,0000;37,58801500;36,81665000;10,37474155;560,70000000;
92,305758;-0,2839;0,0265;-0,2979;0,0177;-0,0067;-0,0012;37,58801500;36,81665000;10,37474155;560,70000000;
92,406198;0,0062;-0,1697;-0,3187;0,0183;-0,0092;-0,0043;37,58801500;36,81665000;10,37474155;560,70000000;
92,505961;0,2081;0,0153;-0,3242;0,0122;-0,0098;-0,0012;37,58801500;36,81665000;10,37474155;561,40000000;
92,606754;-0,0560;0,1009;-0,1564;0,0043;-0,0171;-0,0079;37,58801833;36,81677167;11,27859306;561,40000000;
92,707322;0,4300;-0,1240;0,9053;-0,0043;-0,0134;0,0024;37,58801833;36,81677167;11,27859306;561,40000000;
92,807672;-0,0616;-0,3349;-0,3571;-0,0031;-0,0147;-0,0073;37,58801833;36,81677167;11,27859306;561,40000000;
92,908779;0,4002;-0,0769;0,2603;-0,0098;-0,0073;-0,0012;37,58801833;36,81677167;11,27859306;561,40000000;
93,008872;-0,3052;-0,0781;-0,0594;-0,0079;-0,0055;-0,0049;37,58801833;36,81677167;11,27859306;561,40000000;
93,109629;0,1080;0,0877;0,3949;0,0018;-0,0061;-0,0073;37,58801833;36,81677167;11,27859306;561,40000000;
93,209985;0,2684;0,0168;0,4932;0,0049;-0,0012;-0,0061;37,58801833;36,81677167;11,27859306;561,40000000;
93,309996;0,2470;0,0116;0,4119;0,0043;0,0006;0,0012;37,58801833;36,81677167;11,27859306;561,40000000;
93,410666;-0,3920;0,0380;-0,3033;0,0073;0,0049;-0,0043;37,58801833;36,81677167;11,27859306;561,40000000;
93,510870;-0,0644;0,0418;-0,8336;0,0086;0,0037;-0,0024;37,58801833;36,81677167;11,27859306;562,10000000;
93,611579;-0,0084;-0,0608;-0,4921;0,0049;0,0018;-0,0043;37,58802167;36,81690833;12,71260929;562,10000000;
93,711998;0,1492;-0,0577;0,3048;0,0000;0,0006;-0,0018;37,58802167;36,81690833;12,71260929;562,10000000;
93,819362;0,0748;-0,1157;0,3676;-0,0037;-0,0055;0,0012;37,58802167;36,81690833;12,71260929;562,10000000;
93,912798;-0,2003;-0,0899;-0,0165;-0,0031;-0,0067;-0,0024;37,58802167;36,81690833;12,71260929;562,10000000;
94,013017;-0,3068;0,0373;-0,0750;0,0037;-0,0055;-0,0012;37,58802167;36,81690833;12,71260929;562,10000000;
94,113541;-0,1113;-0,0528;-0,0561;0,0122;-0,0092;0,0012;37,58802167;36,81690833;12,71260929;562,10000000;
94,213937;0,4984;0,0418;0,0711;0,0140;-0,0116;0,0055;37,58802167;36,81690833;12,71260929;562,10000000;
94,314478;0,0352;-0,0210;-0,3226;0,0098;-0,0104;0,0067;37,58802167;36,81690833;12,71260929;562,10000000;
94,414965;-0,1523;-0,1620;-0,2051;0,0006;-0,0110;0,0073;37,58802167;36,81690833;12,71260929;562,10000000;
94,514684;-0,2994;-0,0094;-0,3595;-0,0122;-0,0086;0,0110;37,58802167;36,81690833;12,71260929;562,50000000;
94,615635;-0,0064;-0,0755;-0,3720;-0,0250;0,0000;0,0073;37,58801833;36,81705667;13,25203800;562,50000000;
94,715410;0,1830;-0,0544;-0,0549;-0,0305;0,0006;0,0073;37,58801833;36,81705667;13,25203800;562,50000000;
94,815543;-0,0674;-0,0428;0,0301;-0,0257;-0,0018;0,0031;37,58801833;36,81705667;13,25203800;562,50000000;
94,917436;0,2000;0,0708;0,3807;-0,0183;0,0018;0,0018;37,58801833;36,81705667;13,25203800;562,50000000;
95,016466;0,0484;-0,0552;0,1914;-0,0024;0,0000;0,0000;37,58801833;36,81705667;13,25203800;562,50000000;
95,117337;0,3544;-0,1929;0,6061;0,0067;0,0049;-0,0037;37,58801833;36,81705667;13,25203800;562,50000000;
95,217852;0,3349;-0,1109;0,4217;0,0116;0,0000;-0,0018;37,58801833;36,81705667;13,25203800;562,50000000;
95,318094;-0,0695;-0,0203;-0,0571;0,0104;0,0000;0,0024;37,58801833;36,81705667;13,25203800;562,50000000;
95,418543;-0,1815;-0,2527;-0,3026;0,0073;-0,0031;0,0024;37,58801833;36,81705667;13,25203800;562,50000000;
95,518345;-0,3213;-0,1216;-0,5850;-0,0006;-0,0006;0,0031;37,58801833;36,81705667;13,25203800;562,80000000;
95,619311;-0,0115;-0,0159;-0,9590;-0,0086;-0,0147;-0,0049;37,58801667;36,81721500;14,60884571;562,80000000;
95,719639;0,8159;0,0455;0,5001;-0,0165;-0,0232;-0,0018;37,58801667;36,81721500;14,60884571;562,80000000;
95,820125;-0,0523;-0,1993;0,3173;-0,0220;-0,0244;-0,0012;37,58801667;36,81721500;14,60884571;562,80000000;
95,920493;0,0212;0,0470;0,3810;-0,0171;-0,0244;-0,0079;37,58801667;36,81721500;14,60884571;562,80000000;
96,020850;-0,0073;-0,0495;0,2922;-0,0098;-0,0305;-0,0055;37,58801667;36,81721500;14,60884571;562,80000000;
96,121360;-0,0849;-0,1274;0,1831;0,0031;-0,0348;-0,0104;37,58801667;36,81721500;14,60884571;562,80000000;
96,222112;-0,2453;-0,0221;-0,4962;0,0024;-0,0134;-0,0110;37,58801667;36,81721500;14,60884571;562,80000000;
96,322528;0,0665;-0,0087;0,5723;-0,0012;-0,0012;-0,0104;37,58801667;36,81721500;14,60884571;562,80000000;
96,422572;0,1535;0,0224;0,5484;0,0031;0,0006;-0,0043;37,58801667;36,81721500;14,60884571;562,80000000;
96,523079;-0,2454;0,0701;0,0596;0,0104;-0,0012;-0,0092;37,58801667;36,81721500;14,60884571;563,10000000;
96,623786;0,1816;-0,1413;0,2353;0,0153;0,0037;-0,0061;37,58801333;36,81738667;15,42673969;563,10000000;
96,724240;-0,0736;0,0123;-0,1109;0,0159;0,0183;0,0000;37,58801333;36,81738667;15,42673969;563,10000000;
96,824721;-0,7371;-0,0394;-0,5238;0,0092;0,0098;-0,0055;37,58801333;36,81738667;15,42673969;563,10000000;
96,925000;-0,3301;-0,0095;-0,2751;-0,0037;0,0061;-0,0086;37,58801333;36,81738667;15,42673969;563,10000000;
97,025380;0,3151;-0,1487;0,1404;-0,0110;0,0086;-0,0079;37,58801333;36,81738667;15,42673969;563,10000000;
97,125836;-0,1819;0,0486;-0,0662;-0,0024;0,0043;-0,0104;37,58801333;36,81738667;15,42673969;563,10000000;
97,226282;0,1451;-0,1622;-0,0976;0,0018;0,0049;-0,0140;37,58801333;36,81738667;15,42673969;563,10000000;
97,326651;0,2100;-0,1026;0,0530;0,0006;0,0116;-0,0104;37,58801333;36,81738667;15,42673969;563,10000000;
97,426908;0,0598;-0,2120;0,0261;-0,0043;0,0055;-0,0104;37,58801333;36,81738667;15,42673969;563,10000000;
97,527308;-0,3533;0,0910;-0,0975;-0,0067;0,0061;-0,0104;37,58801333;36,81738667;15,42673969;563,40000000;
97,627758;-0,2759;0,0049;-0,1850;-0,0098;0,0024;-0,0092;37,58801000;36,81756833;16,25183868;563,40000000;
97,728215;-0,3405;0,0070;-0,2894;-0,0043;0,0110;-0,0122;37,58801000;36,81756833;16,25183868;563,40000000;
97,828750;-0,1132;-0,0868;-0,3210;-0,0061;0,0067;-0,0165;37,58801000;36,81756833;16,25183868;563,40000000;
97,929020;-0,2389;-0,1444;-0,0745;-0,0037;0,0067;-0,0189;37,58801000;36,81756833;16,25183868;563,40000000;
98,029787;0,3662;-0,2326;0,0663;-0,0092;0,0055;-0,0067;37,58801000;36,81756833;16,25183868;563,40000000;
98,130160;-0,2257;0,0124;-0,2292;-0,0104;0,0086;-0,0122;37,58801000;36,81756833;16,25183868;563,40000000;
98,229933;-0,5078;0,1723;-0,3237;-0,0079;0,0195;-0,0140;37,58801000;36,81756833;16,25183868;563,40000000;
98,330390;-0,0187;0,1860;-0,2073;-0,0104;0,0171;-0,0104;37,58801000;36,81756833;16,25183868;563,40000000;
98,430523;0,0416;0,0718;-0,5169;-0,0049;0,0183;-0,0092;37,58801000;36,81756833;16,25183868;563,80000000;
98,531813;0,4339;-0,0603;0,2824;-0,0018;0,0171;-0,0061;37,58800500;36,81775833;16,87877083;563,80000000;
98,632810;-0,4216;-0,0299;0,1599;0,0049;0,0171;-0,0043;37,58800500;36,81775833;16,87877083;563,80000000;
98,732921;-0,1674;0,0483;0,0622;0,0043;0,0183;-0,0073;37,58800500;36,81775833;16,87877083;563,80000000;
98,833559;0,1191;-0,1951;-0,0755;-0,0006;0,0165;-0,0061;37,58800500;36,81775833;16,87877083;563,80000000;
98,933529;0,6305;0,2164;0,0506;-0,0006;0,0232;-0,0012;37,58800500;36,81775833;16,87877083;563,80000000;
99,033652;-1,0082;-0,0828;-0,7926;0,0055;0,0067;-0,0104;37,58800500;36,81775833;16,87877083;563,80000000;
99,134443;0,0303;-0,0825;-0,2450;0,0104;-0,0024;-0,0147;37,58800500;36,81775833;16,87877083;563,80000000;
99,234964;-0,2530;-0,0827;-0,2949;0,0031;-0,0067;0,0031;37,58800500;36,81775833;16,87877083;563,80000000;
99,335422;0,6573;0,0296;0,2067;-0,0079;-0,0061;0,0037;37,58800500;36,81775833;16,87877083;563,80000000;
99,435514;-0,8369;0,0725;-0,5683;-0,0134;-0,0043;-0,0079;37,58800500;36,81775833;16,87877083;563,80000000;
99,536272;0,6038;-0,1544;0,7559;-0,0189;-0,0104;0,0000;37,58800500;36,81775833;16,87877083;564,00000000;
99,637005;-0,0815;0,0773;-0,1993;-0,0110;-0,0049;-0,0043;37,58800167;36,81795833;17,83358002;564,00000000;
99,737498;0,2700;-0,2705;0,5692;-0,0018;0,0006;-0,0024;37,58800167;36,81795833;17,83358002;564,00000000;
99,837947;-0,3375;0,0026;0,8423;0,0140;-0,0012;-0,0061;37,58800167;36,81795833;17,83358002;564,00000000;
99,937823;0,5056;-0,1552;0,9013;0,0214;0,0018;-0,0055;37,58800167;36,81795833;17,83358002;564,00000000;
100,039308;0,0705;-0,2264;0,1815;0,0086;0,0122;0,0031;37,58800167;36,81795833;17,83358002;564,00000000;
100,139210;0,1663;-0,0443;-0,0148;0,0031;0,0092;0,0006;37,58800167;36,81795833;17,83358002;564,00000000;
100,239408;-0,2323;-0,2638;-0,3479;-0,0006;0,0110;-0,0031;37,58800167;36,81795833;17,83358002;564,00000000;
100,339781;-0,6007;-0,1594;-0,6528;0,0024;0,0202;0,0031;37,58800167;36,81795833;17,83358002;564,00000000;
100,439922;-0,5771;-0,1435;-0,7225;0,0061;0,0110;0,0018;37,58800167;36,81795833;17,83358002;564,00000000;
100,540791;-0,1677;-0,3126;-0,1673;0,0043;0,0043;0,0061;37,58800167;36,81795833;17,83358002;563,90000000;
100,641339;0,0147;-0,2252;0,3829;-0,0024;0,0031;0,0024;37,58799500;36,81816833;18,37712669;563,90000000;
100,741066;0,0730;0,0441;0,1994;-0,0067;0,0018;0,0073;37,58799500;36,81816833;18,37712669;563,90000000;
100,841973;0,4981;-0,3526;0,7402;-0,0122;-0,0110;0,0018;37,58799500;36,81816833;18,37712669;563,90000000;
100,942272;-0,0804;-0,3037;0,3606;-0,0043;-0,0134;0,0012;37,58799500;36,81816833;18,37712669;563,90000000;
101,042687;-0,2291;-0,1340;0,6352;0,0073;-0,0140;0,0000;37,58799500;36,81816833;18,37712669;563,90000000;
101,143241;-0,1612;-0,0474;0,6600;0,0165;-0,0116;0,0018;37,58799500;36,81816833;18,37712669;563,90000000;
101,243360;0,0992;-0,0682;0,0172;0,0226;-0,0153;0,0024;37,58799500;36,81816833;18,37712669;563,90000000;
101,344210;-0,0980;-0,0620;-0,1149;0,0171;-0,0159;0,0055;37,58799500;36,81816833;18,37712669;563,90000000;
101,444403;0,2132;-0,0615;-0,1149;0,0067;-0,0147;0,0024;37,58799500;36,81816833;18,37712669;563,90000000;
101,545333;0,1091;-0,0976;-0,2617;0,0049;-0,0189;0,0049;37,58799500;36,81816833;18,37712669;564,20000000;
101,644831;0,0026;0,0086;-0,1095;0,0055;-0,0202;0,0043;37,58798833;36,81837667;17,89328766;564,20000000;
101,745593;0,4272;-0,0836;-0,4196;0,0073;-0,0159;-0,0018;37,58798833;36,81837667;17,89328766;564,20000000;
101,846135;-0,4986;0,0300;-0,3095;0,0043;-0,0171;0,0000;37,58798833;36,81837667;17,89328766;564,20000000;
101,957523;0,2289;-0,0916;-0,1523;-0,0018;-0,0122;-0,0024;37,58798833;36,81837667;17,89328766;564,20000000;
102,046992;-0,0015;-0,1268;-0,1912;-0,0024;-0,0092;0,0006;37,58798833;36,81837667;17,89328766;564,20000000;
102,147818;0,2600;0,0339;-0,1708;-0,0006;-0,0073;-0,0012;37,58798833;36,81837667;17,89328766;564,20000000;
102,248485;-0,2903;0,1104;-0,4538;-0,0037;-0,0043;0,0000;37,58798833;36,81837667;17,89328766;564,20000000;
102,348921;-0,0194;0,1028;0,4654;-0,0043;-0,0061;-0,0031;37,58798833;36,81837667;17,89328766;564,20000000;
102,449057;0,1401;0,0636;0,3549;-0,0018;-0,0049;-0,0049;37,58798833;36,81837667;17,89328766;564,20000000;
102,550034;0,4047;-0,1322;0,6127;0,0049;-0,0061;-0,0061;37,58798833;36,81837667;17,89328766;564,70000000;
102,650471;0,1335;-0,1582;-0,5111;0,0165;-0,0153;-0,0098;37,58798000;36,81857833;17,23598862;564,70000000;
102,750393;-0,2004;-0,1000;-0,0930;0,0165;-0,0067;-0,0110;37,58798000;36,81857833;17,23598862;564,70000000;
102,851051;-0,1169;-0,0439;-0,4668;0,0067;0,0043;-0,0024;37,58798000;36,81857833;17,23598862;564,70000000;
102,951738;-0,1193;0,0746;-0,2339;0,0018;0,0165;0,0000;37,58798000;36,81857833;17,23598862;564,70000000;
103,051897;-0,4962;0,1727;-0,5593;-0,0012;0,0055;-0,0037;37,58798000;36,81857833;17,23598862;564,70000000;
103,152810;0,8696;-0,1650;1,3085;-0,0061;0,0067;-0,0012;37,58798000;36,81857833;17,23598862;564,70000000;
103,253102;0,3154;-0,0656;0,8587;-0,0043;0,0159;0,0024;37,58798000;36,81857833;17,23598862;564,70000000;
103,353457;0,2085;0,0116;1,0024;0,0012;0,0104;0,0031;37,58798000;36,81857833;17,23598862;564,70000000;
103,454039;0,0952;0,1948;0,6170;0,0086;0,0092;-0,0079;37,58798000;36,81857833;17,23598862;565,10000000;
103,553796;0,0707;0,0386;0,1762;0,0092;0,0079;-0,0024;37,58796833;36,81877167;16,49633217;565,10000000;
103,654499;-0,3738;0,1122;-0,6590;0,0049;0,0079;-0,0018;37,58796833;36,81877167;16,49633217;565,10000000;
103,754995;0,5772;-0,0742;0,0672;-0,0067;0,0153;0,0018;37,58796833;36,81877167;16,49633217;565,10000000;
103,855224;-0,1390;0,0432;-0,4833;-0,0110;0,0104;-0,0073;37,58796833;36,81877167;16,49633217;565,10000000;
103,955630;-0,6999;0,0209;-0,6817;-0,0079;0,0037;-0,0086;37,58796833;36,81877167;16,49633217;565,10000000;
104,055785;-1,9233;-0,0520;-0,4759;0,0024;-0,0098;-0,0043;37,58796833;36,81877167;16,49633217;565,10000000;
104,156506;0,0734;-0,2050;-0,0309;0,0067;-0,0079;-0,0037;37,58796833;36,81877167;16,49633217;565,10000000;
104,256882;0,6225;-0,0591;0,9532;0,0098;-0,0037;-0,0006;37,58796833;36,81877167;16,49633217;565,10000000;
104,357245;-0,4569;-0,0451;-0,3779;0,0104;0,0000;-0,0018;37,58796833;36,81877167;16,49633217;565,10000000;
104,457287;0,9250;-0,1487;0,0843;0,0037;0,0171;0,0055;37,58796833;36,81877167;16,49633217;564,90000000;
104,558461;-0,1092;-0,0499;-1,4434;0,0018;0,0024;-0,0037;37,58795500;36,81895500;15,61358356;564,90000000;
104,658917;0,0567;-0,3035;-0,4461;-0,0061;0,0171;-0,0043;37,58795500;36,81895500;15,61358356;564,90000000;
104,759355;0,4201;-0,1888;-0,0299;-0,0067;0,0092;-0,0061;37,58795500;36,81895500;15,61358356;564,90000000;
104,859723;0,1276;-0,0559;-0,1036;-0,0079;0,0226;-0,0092;37,58795500;36,81895500;15,61358356;564,90000000;
104,959819;0,1565;-0,1900;0,1496;-0,0067;0,0220;-0,0092;37,58795500;36,81895500;15,61358356;564,90000000;
105,060426;0,0332;0,0334;0,2768;-0,0092;0,0257;-0,0122;37,58795500;36,81895500;15,61358356;564,90000000;
105,161281;-0,1830;-0,1357;0,3911;-0,0067;0,0244;-0,0098;37,58795500;36,81895500;15,61358356;564,90000000;
105,261685;-0,1662;-0,1926;0,0786;-0,0049;0,0238;-0,0110;37,58795500;36,81895500;15,61358356;564,90000000;
105,361902;-0,2844;-0,1605;-0,0787;0,0055;0,0189;-0,0116;37,58795500;36,81895500;15,61358356;564,90000000;
105,461811;-0,2292;0,0538;-0,2521;0,0079;0,0147;-0,0122;37,58795500;36,81895500;15,61358356;564,50000000;
105,562730;-0,2626;-0,0266;-0,0943;0,0110;0,0043;-0,0122;37,58793833;36,81912833;14,51310730;564,50000000;
105,663762;0,1558;-0,0606;-0,1133;0,0049;-0,0006;-0,0104;37,58793833;36,81912833;14,51310730;564,50000000;
105,764070;0,1404;-0,0730;-0,2772;-0,0006;-0,0018;-0,0073;37,58793833;36,81912833;14,51310730;564,50000000;
105,864581;-0,0209;0,0566;-0,1563;-0,0031;-0,0098;-0,0110;37,58793833;36,81912833;14,51310730;564,50000000;
105,964872;-0,6028;-0,0268;-0,2875;-0,0043;-0,0153;-0,0110;37,58793833;36,81912833;14,51310730;564,50000000;
106,064796;0,1827;-0,0183;0,3972;-0,0012;-0,0147;-0,0079;37,58793833;36,81912833;14,51310730;564,50000000;
106,165876;-0,8208;0,0362;-0,3795;0,0018;-0,0159;-0,0122;37,58793833;36,81912833;14,51310730;564,50000000;
106,266403;0,3868;0,0252;0,5125;0,0079;-0,0140;-0,0134;37,58793833;36,81912833;14,51310730;564,50000000;
106,366329;0,1961;0,1191;0,5779;0,0067;-0,0049;-0,0079;37,58793833;36,81912833;14,51310730;564,50000000;
106,466525;-0,4978;0,1218;-0,4310;0,0098;-0,0122;-0,0140;37,58793833;36,81912833;14,51310730;564,60000000;
106,567430;0,3691;-0,0550;0,2196;0,0067;-0,0073;-0,0116;37,58792500;36,81928833;13,44711781;564,60000000;
106,668236;0,1434;0,0615;-0,3606;0,0012;-0,0012;-0,0092;37,58792500;36,81928833;13,44711781;564,60000000;
106,768395;0,0481;-0,0298;-0,0450;0,0024;-0,0067;-0,0110;37,58792500;36,81928833;13,44711781;564,60000000;
106,868924;-0,1711;-0,0758;-0,2125;0,0000;-0,0006;-0,0104;37,58792500;36,81928833;13,44711781;564,60000000;
106,969661;0,3130;0,0300;-0,2499;0,0006;0,0000;-0,0128;37,58792500;36,81928833;13,44711781;564,60000000;
107,069745;-0,2272;0,0060;-0,4533;-0,0037;0,0073;-0,0147;37,58792500;36,81928833;13,44711781;564,60000000;
107,170382;0,0992;0,1014;-0,0678;0,0006;0,0055;-0,0104;37,58792500;36,81928833;13,44711781;564,60000000;
107,270971;-0,0131;-0,0057;-0,2114;0,0024;0,0037;-0,0104;37,58792500;36,81928833;13,44711781;564,60000000;
107,371196;-0,5227;0,0154;-0,7571;0,0024;0,0024;-0,0122;37,58792500;36,81928833;13,44711781;564,60000000;
107,471261;-0,2209;0,1151;-0,6048;0,0006;-0,0049;-0,0122;37,58792500;36,81928833;13,44711781;564,60000000;
107,572215;0,1397;-0,0363;0,1858;-0,0086;-0,0012;-0,0073;37,58790833;36,81943500;12,20200539;564,60000000;
107,672946;-0,1969;0,1609;-0,3475;-0,0049;0,0024;-0,0092;37,58790833;36,81943500;12,20200539;564,60000000;
107,773778;-0,2514;0,0083;-0,0120;-0,0024;-0,0055;-0,0104;37,58790833;36,81943500;12,20200539;564,60000000;
107,874046;-0,0637;0,0035;-0,0437;0,0000;0,0006;-0,0067;37,58790833;36,81943500;12,20200539;564,60000000;
107,974446;-0,0074;-0,0798;0,0275;0,0049;-0,0049;-0,0073;37,58790833;36,81943500;12,20200539;564,60000000;
108,080583;0,0552;-0,1451;-0,2675;0,0049;-0,0079;-0,0061;37,58790833;36,81943500;12,20200539;564,60000000;
108,175443;0,0601;-0,3027;-0,3931;-0,0067;-0,0110;0,0012;37,58790833;36,81943500;12,20200539;564,60000000;
108,275650;-0,3065;-0,2525;-0,2982;-0,0140;-0,0128;-0,0073;37,58790833;36,81943500;12,20200539;564,60000000;
108,376408;0,2310;-0,1244;0,8908;-0,0226;-0,0098;-0,0073;37,58790833;36,81943500;12,20200539;564,60000000;
108,476122;-0,0597;-0,0305;0,4117;-0,0147;-0,0134;-0,0104;37,58790833;36,81943500;12,20200539;564,60000000;
108,577248;-0,0259;0,0380;0,2063;0,0024;-0,0208;-0,0128;37,58789500;36,81956667;10,96512794;564,60000000;
108,677529;0,1379;0,1449;0,1022;0,0104;-0,0189;-0,0086;37,58789500;36,81956667;10,96512794;564,60000000;
108,778025;0,1308;-0,0176;0,0779;0,0281;-0,0177;-0,0086;37,58789500;36,81956667;10,96512794;564,60000000;
108,878449;-0,1661;-0,1906;-0,5021;0,0360;-0,0049;-0,0086;37,58789500;36,81956667;10,96512794;564,60000000;
108,978720;0,2467;0,0421;-0,4183;0,0330;-0,0092;-0,0128;37,58789500;36,81956667;10,96512794;564,60000000;
109,079612;0,0113;0,0410;-0,9568;0,0079;-0,0024;-0,0092;37,58789500;36,81956667;10,96512794;564,60000000;
109,179717;-0,2094;-0,0301;-0,5545;-0,0147;0,0049;-0,0061;37,58789500;36,81956667;10,96512794;564,60000000;
109,280788;-0,3607;-0,0560;-0,2671;-0,0244;0,0079;-0,0079;37,58789500;36,81956667;10,96512794;564,60000000;
109,380707;-0,0924;0,0382;0,1418;-0,0226;0,0147;-0,0024;37,58789500;36,81956667;10,96512794;564,60000000;
109,481678;-0,0227;0,0883;0,2616;-0,0195;0,0140;0,0006;37,58789500;36,81956667;10,96512794;564,60000000;
109,582030;-0,1904;0,0377;0,3286;-0,0092;0,0092;0,0018;37,58787833;36,81968000;9,26242638;564,60000000;
109,682986;-0,0489;0,0253;0,4595;0,0061;0,0012;0,0049;37,58787833;36,81968000;9,26242638;564,60000000;
109,782377;-0,2771;0,1254;0,3964;0,0165;0,0006;0,0116;37,58787833;36,81968000;9,26242638;564,60000000;
109,882577;-0,0339;-0,0243;0,4168;0,0189;-0,0006;0,0140;37,58787833;36,81968000;9,26242638;564,60000000;
109,987947;-0,1867;0,1552;0,2114;0,0122;0,0079;0,0159;37,58787833;36,81968000;9,26242638;564,60000000;
110,084495;-0,0699;0,0567;-0,1988;-0,0024;0,0092;0,0183;37,58787833;36,81968000;9,26242638;564,60000000;
110,184782;-0,1917;0,0157;-0,7634;-0,0086;0,0006;0,0153;37,58787833;36,81968000;9,26242638;564,60000000;
110,285111;0,1907;0,2232;-0,3097;-0,0073;-0,0073;0,0147;37,58787833;36,81968000;9,26242638;564,60000000;
110,385664;0,1161;0,1529;0,0443;-0,0043;-0,0104;0,0189;37,58787833;36,81968000;9,26242638;564,60000000;
110,485608;-0,0506;0,1027;0,0889;0,0000;-0,0153;0,0165;37,58787833;36,81968000;9,26242638;564,60000000;
110,586541;0,0107;0,0783;0,5115;0,0049;-0,0208;0,0183;37,58786667;36,81977333;7,63127184;564,60000000;
110,687671;-0,2290;0,1023;-0,0830;0,0079;-0,0134;0,0177;37,58786667;36,81977333;7,63127184;564,60000000;
110,787323;0,3960;0,0390;0,4627;0,0098;-0,0159;0,0140;37,58786667;36,81977333;7,63127184;564,60000000;
110,888246;0,1236;0,0914;0,0820;0,0067;-0,0061;0,0147;37,58786667;36,81977333;7,63127184;564,60000000;
110,988474;-0,1014;0,1224;-0,3357;0,0049;-0,0037;0,0128;37,58786667;36,81977333;7,63127184;564,60000000;
111,088469;0,1002;0,1266;0,0598;0,0043;-0,0049;0,0116;37,58786667;36,81977333;7,63127184;564,60000000;
111,188303;0,2066;0,0815;0,3834;0,0012;-0,0024;0,0116;37,58786667;36,81977333;7,63127184;564,60000000;
111,288726;-0,0212;0,0753;0,1293;0,0018;-0,0018;0,0122;37,58786667;36,81977333;7,63127184;564,60000000;
111,389596;0,0395;0,0384;-0,0191;0,0043;-0,0073;0,0098;37,58786667;36,81977333;7,63127184;564,60000000;
111,489617;-0,0088;0,1055;-0,0814;0,0037;-0,0128;0,0104;37,58786667;36,81977333;7,63127184;564,40000000;
111,589869;-0,1028;0,1608;-0,3265;0,0061;-0,0140;0,0067;37,58785667;36,81985167;6,75469971;564,40000000;
111,690278;0,1926;0,0488;-0,0043;0,0067;-0,0189;0,0049;37,58785667;36,81985167;6,75469971;564,40000000;
111,790761;0,1024;-0,0116;-0,1604;0,0043;-0,0214;0,0024;37,58785667;36,81985167;6,75469971;564,40000000;
111,891919;-0,7731;0,3829;-1,0302;0,0214;-0,0153;-0,0043;37,58785667;36,81985167;6,75469971;564,40000000;
111,992411;0,5019;0,3192;-0,3877;-0,0031;-0,0220;0,0079;37,58785667;36,81985167;6,75469971;564,40000000;
112,092005;-0,2685;0,2305;-0,4868;0,0000;-0,0189;0,0067;37,58785667;36,81985167;6,75469971;564,40000000;
112,192444;0,0201;0,1399;0,1270;-0,0043;-0,0214;-0,0086;37,58785667;36,81985167;6,75469971;564,40000000;
112,292714;-0,1025;0,2726;0,3726;-0,0086;-0,0208;-0,0018;37,58785667;36,81985167;6,75469971;564,40000000;
112,393329;0,1427;0,3835;0,5039;-0,0037;-0,0269;-0,0079;37,58785667;36,81985167;6,75469971;564,40000000;
112,493970;0,1400;0,1761;0,1756;0,0043;-0,0257;-0,0104;37,58785667;36,81985167;6,75469971;564,10000000;
112,594719;0,0190;0,0888;-0,1625;0,0079;-0,0281;-0,0122;37,58785000;36,81991833;5,29855061;564,10000000;
112,695256;-0,0105;0,2463;-0,1016;0,0086;-0,0244;-0,0165;37,58785000;36,81991833;5,29855061;564,10000000;
112,795754;-0,0605;0,3755;-0,0374;0,0092;-0,0214;-0,0140;37,58785000;36,81991833;5,29855061;564,10000000;
112,896182;-0,0773;0,4023;0,1297;0,0104;-0,0195;-0,0153;37,58785000;36,81991833;5,29855061;564,10000000;
112,996581;0,0231;0,2855;0,1142;0,0110;-0,0140;-0,0140;37,58785000;36,81991833;5,29855061;564,10000000;
113,097069;0,3044;0,0332;0,8604;-0,0134;0,0018;-0,0067;37,58785000;36,81991833;5,29855061;564,10000000;
113,197054;-0,6032;0,7281;-1,7111;0,0098;0,0018;-0,0140;37,58785000;36,81991833;5,29855061;564,10000000;
113,297893;-0,1900;0,3270;-0,6361;0,0232;-0,0269;-0,0293;37,58785000;36,81991833;5,29855061;564,10000000;
113,398157;0,6591;0,2385;1,0458;0,0214;-0,0269;-0,0269;37,58785000;36,81991833;5,29855061;564,10000000;
113,498501;-0,0775;0,4578;0,0821;0,0128;-0,0244;-0,0250;37,58785000;36,81991833;5,29855061;564,20000000;
113,599131;0,0926;0,4792;0,1712;0,0128;-0,0287;-0,0226;37,58784667;36,81997167;5,32016897;564,20000000;
113,700137;0,0215;0,4880;-0,3768;0,0055;-0,0299;-0,0250;37,58784667;36,81997167;5,32016897;564,20000000;
113,800201;-0,2347;0,3207;-0,7612;0,0018;-0,0269;-0,0220;37,58784667;36,81997167;5,32016897;564,20000000;
113,900454;0,0603;0,0989;-0,3201;-0,0031;-0,0220;-0,0226;37,58784667;36,81997167;5,32016897;564,20000000;
114,001063;0,1817;0,0446;-0,0852;-0,0043;-0,0208;-0,0226;37,58784667;36,81997167;5,32016897;564,20000000;
114,101741;-0,0160;0,0310;0,1197;-0,0067;-0,0226;-0,0214;37,58784667;36,81997167;5,32016897;564,20000000;
114,201816;-0,1859;-0,1215;-0,1281;-0,0122;-0,0165;-0,0226;37,58784667;36,81997167;5,32016897;564,20000000;
114,302359;0,0464;-0,0922;-0,0424;-0,0177;-0,0171;-0,0202;37,58784667;36,81997167;5,32016897;564,20000000;
114,403472;-0,0785;-0,0563;0,0113;-0,0177;-0,0159;-0,0208;37,58784667;36,81997167;5,32016897;564,20000000;
114,503089;0,0206;-0,0878;0,0384;-0,0195;-0,0171;-0,0208;37,58784667;36,81997167;5,32016897;564,30000000;
114,604162;-0,0437;-0,0533;0,0817;-0,0177;-0,0202;-0,0208;37,58784333;36,82002667;5,94607115;564,30000000;
114,704577;-0,0176;-0,1367;0,1573;-0,0159;-0,0177;-0,0189;37,58784333;36,82002667;5,94607115;564,30000000;
114,804943;-0,0597;-0,2311;0,1288;-0,0189;-0,0232;-0,0202;37,58784333;36,82002667;5,94607115;564,30000000;
114,905569;-0,1184;-0,0973;0,0603;-0,0159;-0,0232;-0,0202;37,58784333;36,82002667;5,94607115;564,30000000;
115,005934;0,0599;-0,0753;0,0889;-0,0195;-0,0171;-0,0232;37,58784333;36,82002667;5,94607115;564,30000000;
115,106260;0,1114;-0,0605;-0,0979;-0,0195;-0,0153;-0,0226;37,58784333;36,82002667;5,94607115;564,30000000;
