
time;ax;ay;az;wx;wy;wz;Latitude;Longitude;Speed (m/s);Altitude (m);
0,099172;0,1835;0,2756;0,2419;0,0128;0,0281;0,0373;0,00000000;0,00000000;0,00000000;716,10000000;
0,199039;-0,0203;0,5702;0,3656;0,0403;-0,0079;0,0360;37,58518000;36,90448167;0,10654750;716,10000000;
0,299173;0,2655;0,4677;-0,6165;-0,0061;0,0104;0,0324;37,58518000;36,90448167;0,10654750;716,10000000;
0,399848;0,3076;0,0926;0,0974;-0,0202;0,0177;0,0476;37,58518000;36,90448167;0,10654750;716,10000000;
0,500071;0,0316;0,2848;-0,7332;-0,0354;0,0660;0,0501;37,58518000;36,90448167;0,10654750;716,10000000;
0,601519;-0,2312;0,6748;0,4870;-0,0104;0,0263;0,0605;37,58518000;36,90448167;0,10654750;716,10000000;
0,701856;0,4619;0,7255;0,1358;0,0018;0,0409;0,0727;37,58518000;36,90448167;0,10654750;716,10000000;
0,801897;-0,0630;0,0139;0,4681;-0,0006;0,0000;0,0360;37,58518000;36,90448167;0,10654750;716,10000000;
0,901992;-0,0143;0,0901;-0,1245;0,0043;0,0024;0,0226;37,58518000;36,90448167;0,10654750;716,10000000;
1,003856;0,6098;-0,2752;-0,5602;-0,0067;0,0055;0,0428;37,58518000;36,90448167;0,10654750;716,10000000;
1,103758;1,1059;-0,4090;1,3706;0,0037;0,0299;0,0183;37,58518000;36,90448167;0,10654750;716,10000000;
1,203404;-0,0947;0,2367;0,3325;0,0293;-0,0055;-0,0079;37,58518000;36,90448167;0,10654750;716,10000000;
1,303897;0,9213;0,0335;-0,5754;0,0696;-0,0250;0,0006;37,58518000;36,90448167;0,10654750;716,10000000;
1,403804;-0,3605;0,1638;0,5889;0,0232;0,0067;-0,0153;37,58518000;36,90448167;0,10654750;716,10000000;
1,505013;0,1508;-1,5505;0,3340;0,0244;0,0941;-0,0061;37,58518000;36,90448167;0,10654750;716,10000000;
1,605520;-0,9395;0,0390;-0,1813;0,0055;-0,1045;-0,0104;37,58518000;36,90448167;0,10654750;716,10000000;
1,705791;-0,0689;0,0222;-0,8784;0,0024;-0,1313;0,0031;37,58518000;36,90448167;0,10654750;716,10000000;
1,806329;0,3395;0,2726;-0,4740;-0,0128;0,0886;0,0257;37,58518000;36,90448167;0,10654750;716,10000000;
1,906005;-0,5795;0,4638;1,0318;-0,0990;0,0324;0,0202;37,58518000;36,90448167;0,10654750;726,50000000;
2,005998;-0,7485;-0,3750;0,0067;0,0391;-0,1185;0,0299;37,58504000;36,90444000;2,75016093;726,50000000;
2,106317;-0,7710;-0,1463;-0,6345;-0,0666;0,0562;0,0379;37,58504000;36,90444000;2,75016093;726,50000000;
2,207927;-1,0181;-0,1686;0,9595;-0,0018;-0,0501;0,0550;37,58504000;36,90444000;2,75016093;726,50000000;
2,307488;-0,0615;-0,0357;-0,3208;-0,0012;-0,0122;0,0709;37,58504000;36,90444000;2,75016093;726,50000000;
2,408180;0,1332;-0,7847;-0,6497;0,0568;-0,0043;0,0770;37,58504000;36,90444000;2,75016093;726,50000000;
2,509209;0,2554;-1,0833;0,2453;-0,0024;-0,0116;0,0929;37,58504000;36,90444000;2,75016093;726,50000000;
2,609050;-0,4843;-0,7133;-1,0629;-0,0037;-0,0476;0,0886;37,58504000;36,90444000;2,75016093;726,50000000;
2,709475;0,6649;-1,0512;-0,9530;-0,0049;0,0189;0,0739;37,58504000;36,90444000;2,75016093;726,50000000;
2,809383;-0,2438;-0,1480;0,7633;-0,0189;-0,0153;0,0519;37,58504000;36,90444000;2,75016093;726,50000000;
2,909853;-0,9764;1,0513;-0,6906;0,0525;-0,1081;0,0574;37,58504000;36,90444000;2,75016093;736,30000000;
3,010600;0,7736;-0,2851;-0,4487;-0,0446;0,0293;0,0226;37,58521833;36,90436500;4,04726076;736,30000000;
3,110454;0,4306;0,3425;0,6993;0,0171;0,0031;0,0165;37,58521833;36,90436500;4,04726076;736,30000000;
3,210661;-0,1546;0,6968;0,8884;0,0318;0,0159;-0,0055;37,58521833;36,90436500;4,04726076;736,30000000;
3,311736;-0,1789;-0,0597;-0,7552;0,0110;0,0006;-0,0049;37,58521833;36,90436500;4,04726076;736,30000000;
3,411993;0,6916;-0,4785;0,3258;-0,0055;-0,0293;-0,0153;37,58521833;36,90436500;4,04726076;736,30000000;
3,512872;0,9348;0,3124;-0,0313;0,0043;0,1466;-0,0385;37,58521833;36,90436500;4,04726076;736,30000000;
3,613244;0,2989;0,5347;0,5545;0,0525;-0,1142;-0,0593;37,58521833;36,90436500;4,04726076;736,30000000;
3,713688;0,6028;0,7170;2,0800;0,1112;-0,2388;-0,0293;37,58521833;36,90436500;4,04726076;736,30000000;
3,814062;-1,8093;0,5401;0,1819;0,0538;-0,1478;-0,0580;37,58521833;36,90436500;4,04726076;736,30000000;
3,913849;-0,1014;1,5944;1,3444;-0,0092;0,0006;-0,0641;37,58521833;36,90436500;4,04726076;739,30000000;
4,014998;-1,6676;1,3929;-1,7262;-0,0104;0,2187;-0,0409;37,58525000;36,90433667;4,44977379;739,30000000;
4,114656;-1,1065;-0,6720;-1,4121;0,0941;-0,0037;-0,0757;37,58525000;36,90433667;4,44977379;739,30000000;
4,215596;-1,2308;0,0321;1,4782;-0,0910;0,1662;-0,0709;37,58525000;36,90433667;4,44977379;739,30000000;
4,316153;0,4748;-0,1987;-0,4797;-0,0409;-0,0678;-0,0751;37,58525000;36,90433667;4,44977379;739,30000000;
4,416632;-0,0945;-1,0340;0,3706;0,0092;-0,0959;-0,0501;37,58525000;36,90433667;4,44977379;739,30000000;
4,517126;-0,0543;-1,6240;-0,0365;-0,0189;0,1069;-0,0611;37,58525000;36,90433667;4,44977379;739,30000000;
4,617456;-0,2611;-0,8073;-0,6460;-0,0006;0,0159;-0,0733;37,58525000;36,90433667;4,44977379;739,30000000;
4,717887;0,1423;-0,3845;-0,2821;0,0073;-0,0354;-0,0721;37,58525000;36,90433667;4,44977379;739,30000000;
4,818273;-1,0622;-0,6958;0,4455;0,0153;0,0428;-0,0751;37,58525000;36,90433667;4,44977379;739,30000000;
4,918128;-0,5224;-0,2408;-0,7995;-0,0140;-0,0250;-0,0757;37,58525000;36,90433667;4,44977379;738,40000000;
5,018937;-0,1281;-0,3646;1,1285;0,0037;-0,0055;-0,0843;37,58502667;36,90408667;4,96604013;738,40000000;
5,119580;-0,1647;0,1649;-0,2806;-0,0134;0,0122;-0,0721;37,58502667;36,90408667;4,96604013;738,40000000;
5,219292;0,8718;-0,3348;-0,9213;-0,0208;-0,0305;-0,1026;37,58502667;36,90408667;4,96604013;738,40000000;
5,319994;0,4149;0,7220;-0,4441;0,0538;-0,0580;-0,0953;37,58502667;36,90408667;4,96604013;738,40000000;
5,420545;0,2679;0,4280;0,3288;-0,0006;-0,0489;-0,0806;37,58502667;36,90408667;4,96604013;738,40000000;
5,521108;0,5866;0,6272;-0,1844;-0,0140;0,0012;-0,0837;37,58502667;36,90408667;4,96604013;738,40000000;
5,621309;0,0294;-0,2879;0,6317;0,0379;0,0043;-0,0922;37,58502667;36,90408667;4,96604013;738,40000000;
5,721928;-0,2887;0,9757;0,1295;0,0244;-0,0092;-0,0819;37,58502667;36,90408667;4,96604013;738,40000000;
5,822588;0,0436;0,6434;-0,4984;0,0330;0,0287;-0,0739;37,58502667;36,90408667;4,96604013;738,40000000;
5,922516;-0,1089;0,2778;-0,1284;0,0208;-0,0214;-0,0745;37,58502667;36,90408667;4,96604013;735,40000000;
6,023507;0,6042;0,2159;-0,3275;-0,0140;0,0134;-0,0721;37,58532000;36,90430833;5,13486910;735,40000000;
6,137183;-0,0158;0,3906;-0,1236;-0,0073;0,0257;-0,0550;37,58532000;36,90430833;5,13486910;735,40000000;
6,223327;-0,0609;0,7014;0,4741;0,0403;0,0360;-0,0550;37,58532000;36,90430833;5,13486910;735,40000000;
6,324069;-0,3741;-0,2736;0,0639;0,0232;0,0177;-0,0721;37,58532000;36,90430833;5,13486910;735,40000000;
6,424868;-0,4240;0,1214;-0,2045;0,0183;-0,0031;-0,0483;37,58532000;36,90430833;5,13486910;735,40000000;
6,525209;0,7991;-0,0295;0,3864;0,0202;-0,0849;-0,0318;37,58532000;36,90430833;5,13486910;735,40000000;
6,625584;0,3278;0,3065;-0,4850;-0,0287;0,1045;-0,0275;37,58532000;36,90430833;5,13486910;735,40000000;
6,725886;-0,3698;0,2989;-0,6335;0,0476;-0,1332;-0,0244;37,58532000;36,90430833;5,13486910;735,40000000;
6,826007;0,0870;-0,5480;0,0019;-0,0122;-0,0250;-0,0147;37,58532000;36,90430833;5,13486910;735,40000000;
6,926206;-0,1019;-0,6139;-1,2437;-0,0073;-0,0330;-0,0232;37,58532000;36,90430833;5,13486910;732,80000000;
7,027500;-0,3975;-0,3827;-0,5787;0,0110;0,0354;-0,0110;37,58537500;36,90430333;5,60172176;732,80000000;
7,127445;0,3169;0,4002;0,1281;0,0263;-0,0403;-0,0305;37,58537500;36,90430333;5,60172176;732,80000000;
7,227695;0,3611;0,2322;-0,4518;-0,0049;0,0202;-0,0153;37,58537500;36,90430333;5,60172176;732,80000000;
7,328519;-0,6780;-0,1266;0,6683;0,0831;-0,0971;-0,0269;37,58537500;36,90430333;5,60172176;732,80000000;
7,428007;1,2498;0,4180;0,6687;0,0391;0,0458;-0,0257;37,58537500;36,90430333;5,60172176;732,80000000;
7,528478;-0,2826;-0,8445;-0,0956;-0,0220;-0,0110;-0,0153;37,58537500;36,90430333;5,60172176;732,80000000;
7,629394;-0,3299;-1,3588;-0,4883;-0,0495;-0,0244;-0,0098;37,58537500;36,90430333;5,60172176;732,80000000;
7,729923;1,2882;-0,7433;0,1770;-0,0024;0,0330;-0,0330;37,58537500;36,90430333;5,60172176;732,80000000;
7,830133;0,6393;0,6440;-1,5977;-0,0324;0,0287;-0,0061;37,58537500;36,90430333;5,60172176;732,80000000;
7,929880;-0,0292;-0,1083;-0,4489;0,0202;-0,0678;-0,0049;37,58537500;36,90430333;5,60172176;733,20000000;
8,031630;-0,0178;0,1996;0,6939;0,0208;0,0171;0,0031;37,58544333;36,90430000;5,68304825;733,20000000;
8,131426;0,2560;-0,7210;0,2267;0,0464;-0,0324;-0,0079;37,58544333;36,90430000;5,68304825;733,20000000;
8,231489;-0,8402;-0,1890;-0,3781;0,0061;-0,0648;-0,0012;37,58544333;36,90430000;5,68304825;733,20000000;
8,332393;-0,4390;1,0113;-0,3321;-0,0153;0,0806;0,0202;37,58544333;36,90430000;5,68304825;733,20000000;
8,432701;-0,5782;-0,1111;-0,0680;0,0257;0,0287;0,0024;37,58544333;36,90430000;5,68304825;733,20000000;
8,533356;-0,2689;0,0666;-0,2381;-0,0177;-0,0067;-0,0086;37,58544333;36,90430000;5,68304825;733,20000000;
8,634073;0,6017;0,5355;0,8853;-0,0031;0,0299;-0,0067;37,58544333;36,90430000;5,68304825;733,20000000;
8,734462;1,2525;-0,6693;-1,2379;0,0250;-0,0348;0,0183;37,58544333;36,90430000;5,68304825;733,20000000;
8,834779;-0,8492;-0,3249;0,0285;-0,0605;-0,0281;0,0024;37,58544333;36,90430000;5,68304825;733,20000000;
8,935122;0,4676;-0,2680;0,2120;0,0092;-0,0415;0,0159;37,58544333;36,90430000;5,68304825;725,90000000;
9,035937;-1,0924;-0,9306;-0,3913;-0,0110;0,1106;-0,0006;37,58551667;36,90432333;6,21063852;725,90000000;
9,135927;0,5962;0,1376;0,8455;-0,0079;-0,1118;0,0250;37,58551667;36,90432333;6,21063852;725,90000000;
9,235825;-0,8494;-1,3146;-1,7426;0,0684;-0,0318;0,0195;37,58551667;36,90432333;6,21063852;725,90000000;
9,336922;0,5654;0,0084;0,4316;-0,0061;-0,0006;0,0446;37,58551667;36,90432333;6,21063852;725,90000000;
9,437178;0,1112;-1,0203;0,4648;0,0006;-0,0140;0,0232;37,58551667;36,90432333;6,21063852;725,90000000;
9,537539;-0,3632;-0,1985;-0,1950;0,0116;0,0012;0,0000;37,58551667;36,90432333;6,21063852;725,90000000;
9,637953;-0,1285;0,6330;-0,7399;-0,0263;-0,0342;0,0287;37,58551667;36,90432333;6,21063852;725,90000000;
9,738773;1,3322;-0,5664;0,3665;0,0531;0,0574;0,0177;37,58551667;36,90432333;6,21063852;725,90000000;
9,839128;-0,3935;-0,1745;-0,5823;-0,0018;-0,0367;0,0330;37,58551667;36,90432333;6,21063852;725,90000000;
9,938748;-0,0727;0,3380;0,5333;0,0373;0,0385;0,0275;37,58551667;36,90432333;6,21063852;717,00000000;
10,039753;0,0678;-0,1460;-0,5342;0,0373;-0,0067;0,0092;37,58563500;36,90433833;7,05478287;717,00000000;
10,140194;0,8939;-0,3742;-0,1098;-0,0049;-0,0257;0,0202;37,58563500;36,90433833;7,05478287;717,00000000;
10,240254;-0,3487;-0,8249;0,0033;0,0049;-0,0568;0,0226;37,58563500;36,90433833;7,05478287;717,00000000;
10,340762;-0,5556;0,6773;0,1221;0,0000;0,0397;0,0336;37,58563500;36,90433833;7,05478287;717,00000000;
10,440752;0,4110;-0,0464;-0,5912;0,0318;0,0079;0,0171;37,58563500;36,90433833;7,05478287;717,00000000;
10,541633;0,7202;-0,1648;0,8653;0,0360;0,0580;0,0037;37,58563500;36,90433833;7,05478287;717,00000000;
10,641951;-0,2965;0,1203;-1,2302;-0,0220;-0,0061;0,0122;37,58563500;36,90433833;7,05478287;717,00000000;
10,742457;-0,0261;-0,8064;-0,5298;-0,0305;0,0000;-0,0037;37,58563500;36,90433833;7,05478287;717,00000000;
10,842937;-0,3408;-0,0985;0,2764;-0,0330;-0,0464;0,0049;37,58563500;36,90433833;7,05478287;717,00000000;
10,943117;0,0752;-0,2009;-0,6384;-0,0476;-0,0611;0,0055;37,58563500;36,90433833;7,05478287;719,20000000;
11,043883;-0,1249;0,2195;0,2949;0,0232;0,0250;0,0043;37,58570500;36,90432500;6,70168352;719,20000000;
11,144087;-0,5769;0,3576;0,0233;-0,0140;0,0037;0,0055;37,58570500;36,90432500;6,70168352;719,20000000;
11,244730;-0,0766;-0,1880;-0,6952;0,0586;-0,0446;0,0116;37,58570500;36,90432500;6,70168352;719,20000000;
11,344616;0,4183;-0,8963;-1,3864;0,0049;0,0672;0,0134;37,58570500;36,90432500;6,70168352;719,20000000;
11,444811;-0,8196;-0,0657;-0,0917;-0,0024;-0,0061;0,0049;37,58570500;36,90432500;6,70168352;719,20000000;
11,544926;0,8860;0,6575;0,0340;0,0220;-0,0623;0,0049;37,58570500;36,90432500;6,70168352;719,20000000;
11,645387;0,4256;0,5770;-0,2274;0,0006;-0,0202;-0,0147;37,58570500;36,90432500;6,70168352;719,20000000;
11,745646;-0,1064;0,7493;0,3611;-0,0519;0,0043;-0,0073;37,58570500;36,90432500;6,70168352;719,20000000;
11,847389;-0,0235;0,0429;-0,3024;0,0073;-0,0275;0,0037;37,58570500;36,90432500;6,70168352;719,20000000;
11,946915;0,1229;-0,6357;-0,4244;-0,0379;0,0061;0,0171;37,58570500;36,90432500;6,70168352;717,10000000;
12,048252;-0,9367;-0,4541;-1,0408;-0,0043;0,0067;-0,0055;37,58576667;36,90433333;6,87257099;717,10000000;
12,148574;-0,1927;0,2767;2,4979;-0,0159;0,0281;0,0140;37,58576667;36,90433333;6,87257099;717,10000000;
12,263269;-0,3454;1,4250;0,3048;0,0843;-0,0495;-0,0116;37,58576667;36,90433333;6,87257099;717,10000000;
12,349076;0,1414;-0,0291;1,2262;0,0507;0,0275;0,0031;37,58576667;36,90433333;6,87257099;717,10000000;
12,449886;1,0158;0,1299;-0,1695;0,0238;0,0440;-0,0134;37,58576667;36,90433333;6,87257099;717,10000000;
12,550241;0,6154;-0,2545;0,6706;0,1155;-0,0043;-0,0079;37,58576667;36,90433333;6,87257099;717,10000000;
12,650997;-1,5488;1,2817;0,8456;0,0629;-0,0116;0,0312;37,58576667;36,90433333;6,87257099;717,10000000;
12,751558;0,7331;-1,3181;-1,7978;-0,0373;-0,0153;-0,0269;37,58576667;36,90433333;6,87257099;717,10000000;
12,851866;0,6399;-1,2147;-0,4157;-0,0049;0,1491;0,0153;37,58576667;36,90433333;6,87257099;717,10000000;
12,951887;-0,3820;-1,0853;-1,9546;-0,0525;0,0189;-0,0122;37,58576667;36,90433333;6,87257099;717,10000000;
13,052724;2,3062;-0,3861;1,1618;-0,0220;0,0941;-0,0440;37,58576667;36,90433333;6,87257099;717,10000000;
13,152968;-0,2095;0,5215;1,1862;-0,0305;0,1527;0,0336;37,58576667;36,90433333;6,87257099;717,10000000;
13,253685;-0,3436;-0,5874;0,9346;-0,0513;-0,0788;-0,0208;37,58576667;36,90433333;6,87257099;717,10000000;
13,353749;-1,4480;1,3209;-1,4137;0,1753;-0,1631;0,0037;37,58576667;36,90433333;6,87257099;717,10000000;
13,454718;-1,0845;0,6185;-0,7230;0,0104;0,0006;0,0226;37,58576667;36,90433333;6,87257099;717,10000000;
13,555476;0,3528;0,4857;-2,3775;0,0519;0,0299;-0,0470;37,58576667;36,90433333;6,87257099;717,10000000;
13,655812;0,2587;-0,7889;0,6494;0,0171;-0,0134;0,0037;37,58576667;36,90433333;6,87257099;717,10000000;
13,756858;1,0028;0,5988;1,3116;-0,1142;0,0092;0,0024;37,58576667;36,90433333;6,87257099;717,10000000;
13,856436;-0,3156;0,8799;-1,9080;0,1497;-0,1356;-0,0617;37,58576667;36,90433333;6,87257099;716,70000000;
13,957132;-0,1370;0,8405;-0,6051;0,0171;0,0000;-0,0238;37,58588500;36,90430500;6,97397137;716,70000000;
14,057585;0,8172;1,0328;1,3384;-0,0379;0,0055;-0,0202;37,58588500;36,90430500;6,97397137;716,70000000;
14,157793;0,4962;-0,9815;-0,2957;-0,0342;-0,0574;-0,0238;37,58588500;36,90430500;6,97397137;716,70000000;
14,259091;-0,2086;-0,1116;-0,9601;-0,0672;0,1674;0,0116;37,58588500;36,90430500;6,97397137;716,70000000;
14,358244;0,3137;-0,7219;-2,4577;-0,0409;0,0715;-0,0018;37,58588500;36,90430500;6,97397137;716,70000000;
14,459475;-0,4199;0,4900;-0,2554;0,0122;-0,0531;0,0226;37,58588500;36,90430500;6,97397137;716,70000000;
14,559742;-1,6895;0,1118;-0,3772;0,0348;-0,0049;0,0165;37,58588500;36,90430500;6,97397137;716,70000000;
14,660161;-0,3455;1,1165;-0,1967;0,0354;-0,0538;-0,0110;37,58588500;36,90430500;6,97397137;716,70000000;
14,760398;0,3515;0,2070;1,1095;0,0238;0,0672;-0,0098;37,58588500;36,90430500;6,97397137;716,70000000;
14,861065;-0,8919;0,1140;2,2242;0,0574;-0,0073;0,0134;37,58588500;36,90430500;6,97397137;716,90000000;
14,961556;0,2702;-1,1734;-0,9446;-0,0018;-0,0122;-0,0086;37,58594667;36,90429167;6,75006723;716,90000000;
15,061773;0,1174;0,4419;2,2059;-0,0464;0,0018;0,0049;37,58594667;36,90429167;6,75006723;716,90000000;
15,162305;0,1608;1,2466;0,3239;0,0556;-0,0409;-0,0220;37,58594667;36,90429167;6,75006723;716,90000000;
15,262721;0,7175;0,5199;-1,2785;0,0055;0,0452;-0,0147;37,58594667;36,90429167;6,75006723;716,90000000;
15,362769;-1,0347;-0,6855;-0,6496;0,0690;-0,0238;0,0318;37,58594667;36,90429167;6,75006723;716,90000000;
15,463865;-1,5571;-0,8079;-1,8278;-0,1839;0,0776;0,0220;37,58594667;36,90429167;6,75006723;716,90000000;
15,564069;0,6441;0,5448;-0,7838;-0,1436;-0,1246;0,0018;37,58594667;36,90429167;6,75006723;716,90000000;
15,664392;0,2528;0,0209;-0,8909;-0,0434;0,1381;0,0134;37,58594667;36,90429167;6,75006723;716,90000000;
15,764434;-0,5870;-0,5154;-0,3413;0,0556;-0,0312;-0,0226;37,58594667;36,90429167;6,75006723;716,90000000;
15,864799;-0,3004;-1,3304;0,2189;0,0147;-0,0391;-0,0165;37,58594667;36,90429167;6,75006723;717,10000000;
15,965510;-0,4166;-0,4169;-1,1315;-0,0147;0,0189;0,0128;37,58600667;36,90428000;6,68057966;717,10000000;
16,065814;0,1988;0,4452;1,0372;0,0568;-0,1093;0,0037;37,58600667;36,90428000;6,68057966;717,10000000;
16,166377;-0,1760;0,1780;-0,4958;0,0269;-0,0525;-0,0092;37,58600667;36,90428000;6,68057966;717,10000000;
16,266678;0,6412;0,0138;-1,2927;-0,0110;-0,0122;0,0208;37,58600667;36,90428000;6,68057966;717,10000000;
16,366931;0,6114;0,1015;-0,0186;0,0617;-0,0226;0,0024;37,58600667;36,90428000;6,68057966;717,10000000;
16,467668;-0,8898;0,1536;0,6401;0,0079;0,0165;-0,0147;37,58600667;36,90428000;6,68057966;717,10000000;
16,568185;-0,9075;-1,6765;1,8851;-0,0788;0,0153;-0,0128;37,58600667;36,90428000;6,68057966;717,10000000;
16,668151;-0,6151;0,4166;0,2528;0,0336;0,0709;0,0140;37,58600667;36,90428000;6,68057966;717,10000000;
16,768865;-0,4187;-0,4142;-1,2888;-0,0067;-0,0079;0,0134;37,58600667;36,90428000;6,68057966;717,10000000;
16,869784;2,6323;0,0812;-0,2065;0,1026;-0,0220;-0,0043;37,58600667;36,90428000;6,68057966;717,70000000;
16,970418;-2,3942;3,3634;3,1062;0,0348;-0,0776;0,0929;37,58605667;36,90427667;6,18387270;717,70000000;
17,070786;0,0302;-0,7667;5,0176;0,3879;-0,5260;0,0318;37,58605667;36,90427667;6,18387270;717,70000000;
17,171598;-1,4733;0,5403;-4,1541;-0,0739;0,0287;0,0519;37,58605667;36,90427667;6,18387270;717,70000000;
17,271974;1,0356;-1,9012;-0,0423;0,1142;0,2908;-0,0421;37,58605667;36,90427667;6,18387270;717,70000000;
17,372210;-0,7131;-0,6453;2,7621;0,1863;0,1338;-0,0367;37,58605667;36,90427667;6,18387270;717,70000000;
17,472228;-1,8117;-0,8495;0,3006;0,0483;-0,4404;0,0232;37,58605667;36,90427667;6,18387270;717,70000000;
17,573072;0,0522;-0,4305;-0,8077;-0,1875;0,2230;0,0470;37,58605667;36,90427667;6,18387270;717,70000000;
17,673734;-2,8466;-2,2910;0,3707;-0,0464;0,2199;0,0214;37,58605667;36,90427667;6,18387270;717,70000000;
17,773778;0,1564;-0,2338;0,4689;-0,0971;-0,0556;0,0446;37,58605667;36,90427667;6,18387270;717,70000000;
17,874422;-0,5541;-0,2107;-0,3208;-0,0293;0,0183;0,0281;37,58605667;36,90427667;6,18387270;718,10000000;
17,975109;-0,2429;-0,7077;-0,0560;-0,0086;0,0757;0,0397;37,58610333;36,90426833;5,63569355;718,10000000;
18,075601;-0,5369;-0,2651;0,0452;-0,0183;0,0006;0,0360;37,58610333;36,90426833;5,63569355;718,10000000;
18,175534;0,6002;0,4862;0,3746;-0,0061;-0,0128;0,0305;37,58610333;36,90426833;5,63569355;718,10000000;
18,276214;0,7910;-0,5522;-0,2201;-0,0122;-0,0305;0,0110;37,58610333;36,90426833;5,63569355;718,10000000;
18,379499;-0,4826;-0,3850;0,5861;-0,0275;0,0391;0,0189;37,58610333;36,90426833;5,63569355;718,10000000;
18,477227;0,0060;0,2415;0,3497;-0,0140;-0,0935;-0,0116;37,58610333;36,90426833;5,63569355;718,10000000;
18,577635;-0,4998;0,7871;0,4363;0,0134;0,0391;-0,0220;37,58610333;36,90426833;5,63569355;718,10000000;
18,677821;-0,1867;0,1492;0,5636;0,0000;0,0757;-0,0483;37,58610333;36,90426833;5,63569355;718,10000000;
18,778084;0,9852;-0,3225;-0,6247;0,0275;-0,0733;-0,0379;37,58610333;36,90426833;5,63569355;718,10000000;
18,878807;-0,3031;-1,6074;-0,9585;-0,0415;0,0134;-0,0342;37,58610333;36,90426833;5,63569355;718,10000000;
18,979525;0,1094;-0,2488;-0,7763;-0,0318;0,0318;-0,0617;37,58615000;36,90426167;5,33921385;718,10000000;
19,079955;0,5597;-0,2209;-0,2393;-0,0220;-0,0067;-0,0751;37,58615000;36,90426167;5,33921385;718,10000000;
19,180508;-0,5889;-0,3950;-0,2282;0,0061;-0,0147;-0,0935;37,58615000;36,90426167;5,33921385;718,10000000;
19,280875;0,5624;0,5910;0,1545;0,0092;0,0104;-0,0996;37,58615000;36,90426167;5,33921385;718,10000000;
19,391834;-0,1659;-0,4874;-0,3771;-0,0067;-0,0458;-0,0971;37,58615000;36,90426167;5,33921385;718,10000000;
19,480829;0,1474;0,0872;-0,7459;-0,0012;-0,0275;-0,1130;37,58615000;36,90426167;5,33921385;718,10000000;
19,581302;0,5033;0,3900;-0,3607;-0,0043;0,0409;-0,1051;37,58615000;36,90426167;5,33921385;718,10000000;
19,681783;0,0748;0,1377;0,0154;0,0464;-0,1619;-0,1100;37,58615000;36,90426167;5,33921385;718,10000000;
19,782496;0,6771;-0,4995;-0,0205;-0,0568;0,2517;-0,1093;37,58615000;36,90426167;5,33921385;717,90000000;
19,883272;-0,8302;-0,5419;-1,5598;-0,0770;-0,0892;-0,1106;37,58619500;36,90425333;4,89192009;717,90000000;
19,983858;1,3791;0,2533;1,3933;0,0086;0,0018;-0,0489;37,58619500;36,90425333;4,89192009;717,90000000;
20,085196;-0,5228;-1,1606;1,0029;0,0122;0,0996;-0,0904;37,58619500;36,90425333;4,89192009;717,90000000;
20,185182;-1,9987;-0,5346;-3,0797;-0,1051;-0,1747;-0,1252;37,58619500;36,90425333;4,89192009;717,90000000;
20,285703;1,5301;-2,1379;2,0872;0,1332;0,1698;-0,0825;37,58619500;36,90425333;4,89192009;717,90000000;
20,385956;-1,4764;-1,6261;1,1685;-0,0782;-0,3439;-0,0764;37,58619500;36,90425333;4,89192009;717,90000000;
20,486132;-0,8968;-2,3404;0,4017;0,0073;-0,0990;-0,0721;37,58619500;36,90425333;4,89192009;717,90000000;
20,587178;-0,4688;-1,6885;0,0601;0,0318;0,0293;-0,0611;37,58619500;36,90425333;4,89192009;717,90000000;
20,687205;0,0183;-0,6387;-1,2148;0,0360;-0,1387;-0,0819;37,58619500;36,90425333;4,89192009;717,90000000;
20,787479;-0,0096;-0,2182;0,7030;0,0067;0,0464;-0,0800;37,58619500;36,90425333;4,89192009;717,90000000;
20,888276;0,5742;0,1732;-0,0911;0,0519;-0,0116;-0,0605;37,58619500;36,90425333;4,89192009;717,60000000;
20,989726;0,6339;0,0207;0,9153;0,0757;0,0220;-0,0788;37,58623667;36,90424667;4,80853510;717,60000000;
21,089983;-1,0513;0,6686;-1,0785;-0,0415;-0,1283;-0,0733;37,58623667;36,90424667;4,80853510;717,60000000;
21,190231;-0,5708;0,2784;-0,1664;0,0165;-0,0654;-0,0299;37,58623667;36,90424667;4,80853510;717,60000000;
21,290921;0,3875;0,3929;0,0426;-0,0116;0,0483;-0,0269;37,58623667;36,90424667;4,80853510;717,60000000;
21,391256;0,0098;0,1605;0,4365;0,0043;-0,0880;-0,0110;37,58623667;36,90424667;4,80853510;717,60000000;
21,491354;-0,1173;0,5494;0,2386;0,0122;-0,0238;-0,0055;37,58623667;36,90424667;4,80853510;717,60000000;
21,592258;-0,0706;0,7819;-0,1837;-0,0073;0,0470;0,0257;37,58623667;36,90424667;4,80853510;717,60000000;
21,692455;0,0988;0,6429;-0,0763;-0,0104;0,0189;0,0263;37,58623667;36,90424667;4,80853510;717,60000000;
21,792583;0,2995;0,1212;-0,7106;-0,0299;0,0110;0,0189;37,58623667;36,90424667;4,80853510;717,90000000;
21,893400;0,1343;0,7928;0,3148;0,0171;0,0037;0,0263;37,58626333;36,90424167;2,98024178;717,90000000;
21,993673;0,0475;0,4566;-0,0960;-0,0134;-0,0257;0,0244;37,58626333;36,90424167;2,98024178;717,90000000;
22,093819;0,2117;0,0347;-0,0673;-0,0024;-0,0287;0,0299;37,58626333;36,90424167;2,98024178;717,90000000;
22,194420;0,0055;-0,3642;0,1960;-0,0183;0,0299;0,0263;37,58626333;36,90424167;2,98024178;717,90000000;
22,294587;0,2844;-0,1702;-0,1659;-0,0086;-0,0043;0,0202;37,58626333;36,90424167;2,98024178;717,90000000;
22,395138;0,4527;-0,0594;-0,2298;-0,0104;0,0122;0,0232;37,58626333;36,90424167;2,98024178;717,90000000;
22,495163;-0,2728;-0,1017;0,2362;0,0305;0,0061;0,0238;37,58626333;36,90424167;2,98024178;717,90000000;
22,595787;0,0031;-0,2991;0,1338;-0,0128;-0,0232;0,0202;37,58626333;36,90424167;2,98024178;717,90000000;
22,696096;-0,0497;-0,3793;-0,5688;-0,0067;0,0269;0,0214;37,58626333;36,90424167;2,98024178;717,90000000;
22,796308;0,3475;-0,0720;-0,7155;0,0012;0,0672;0,0208;37,58626333;36,90424167;2,98024178;718,00000000;
22,897227;0,1299;0,1485;-0,0720;0,0257;-0,0287;0,0067;37,58628000;36,90424167;5,21773911;718,00000000;
22,997852;-0,1221;-0,2029;-0,0615;0,0098;-0,0232;0,0079;37,58628000;36,90424167;5,21773911;718,00000000;
23,097913;-0,1478;-0,2550;-0,0393;-0,0159;-0,0086;0,0116;37,58628000;36,90424167;5,21773911;718,00000000;
23,198701;0,1026;-0,0043;-0,4337;-0,0061;0,0165;0,0037;37,58628000;36,90424167;5,21773911;718,00000000;
23,299195;0,1131;-0,1359;0,0884;0,0012;-0,0214;-0,0031;37,58628000;36,90424167;5,21773911;718,00000000;
23,399306;0,0574;-0,0507;0,0909;0,0037;0,0043;0,0018;37,58628000;36,90424167;5,21773911;718,00000000;
23,499810;-0,1180;-0,1332;-0,1008;-0,0104;0,0110;0,0018;37,58628000;36,90424167;5,21773911;718,00000000;
23,600500;0,2735;0,2212;-0,5147;-0,0165;0,0092;-0,0024;37,58628000;36,90424167;5,21773911;718,00000000;
23,700779;0,1777;0,2103;0,1938;0,0067;0,0183;-0,0012;37,58628000;36,90424167;5,21773911;718,00000000;
23,800640;0,0116;0,0099;-0,1041;0,0037;0,0043;0,0000;37,58628000;36,90424167;5,21773911;717,40000000;
23,901598;-0,1751;-0,0973;-0,1199;-0,0110;0,0086;0,0037;37,58629000;36,90423500;4,63919115;717,40000000;
24,002116;0,1838;0,2837;-0,1429;0,0024;0,0299;0,0000;37,58629000;36,90423500;4,63919115;717,40000000;
24,102290;0,0485;0,5283;0,0148;0,0177;0,0061;0,0000;37,58629000;36,90423500;4,63919115;717,40000000;
24,202446;0,0365;0,4912;-0,0449;0,0061;-0,0140;0,0006;37,58629000;36,90423500;4,63919115;717,40000000;
24,302997;-0,2010;0,2436;-0,1952;-0,0031;0,0067;0,0018;37,58629000;36,90423500;4,63919115;717,40000000;
24,403567;-0,1506;0,1904;0,0417;0,0012;0,0128;-0,0061;37,58629000;36,90423500;4,63919115;717,40000000;
24,503297;-0,0135;0,3059;-0,6593;0,0098;0,0024;0,0000;37,58629000;36,90423500;4,63919115;717,40000000;
24,604161;0,3957;-0,3471;0,7793;0,0513;-0,0250;-0,0018;37,58629000;36,90423500;4,63919115;717,40000000;
24,704887;0,2815;0,3363;0,1686;0,0483;-0,0299;0,0018;37,58629000;36,90423500;4,63919115;717,40000000;
24,804741;-0,2909;0,3222;0,4429;0,0220;0,0189;-0,0043;37,58629000;36,90423500;4,63919115;717,40000000;
24,905677;-0,3314;0,0772;0,2417;-0,0055;0,0220;-0,0018;37,58629000;36,90423500;4,63919115;717,40000000;
25,005942;-0,2778;0,2134;-0,1729;0,0086;0,0073;-0,0031;37,58629000;36,90423500;4,63919115;717,40000000;
25,106922;-0,3680;0,0957;0,0493;0,0031;0,0385;0,0006;37,58629000;36,90423500;4,63919115;717,40000000;
25,207003;0,0792;-0,2137;-0,4872;0,0104;-0,0049;0,0037;37,58629000;36,90423500;4,63919115;717,40000000;
25,307418;-0,1100;-0,0584;-0,1145;-0,0159;0,0024;0,0018;37,58629000;36,90423500;4,63919115;717,40000000;
25,407856;-0,3250;0,3620;0,1206;-0,0092;0,0397;-0,0031;37,58629000;36,90423500;4,63919115;717,40000000;
25,508372;0,1701;-0,0794;-0,5881;0,0171;-0,0061;0,0043;37,58629000;36,90423500;4,63919115;717,40000000;
25,609019;-0,1595;0,1404;0,1413;0,0104;0,0238;0,0024;37,58629000;36,90423500;4,63919115;717,40000000;
25,709537;-0,3057;0,1279;0,3249;0,0116;0,0147;-0,0012;37,58629000;36,90423500;4,63919115;717,40000000;
25,809696;0,2092;-0,1205;-0,2838;-0,0024;0,0061;-0,0086;37,58629000;36,90423500;4,63919115;714,60000000;
25,910746;-0,0430;0,0045;0,1426;0,0104;0,0012;-0,0061;37,58629833;36,90421833;0,71340501;714,60000000;
26,011933;-0,0893;0,0621;-0,4066;-0,0165;-0,0153;0,0031;37,58629833;36,90421833;0,71340501;714,60000000;
26,111715;0,4691;0,4824;-0,4788;-0,0043;0,0208;-0,0086;37,58629833;36,90421833;0,71340501;714,60000000;
26,212063;0,2275;-0,0801;-0,0367;0,0000;-0,0250;-0,0037;37,58629833;36,90421833;0,71340501;714,60000000;
26,312340;-0,1178;0,0664;0,0301;0,0165;-0,0122;-0,0049;37,58629833;36,90421833;0,71340501;714,60000000;
26,412937;0,0310;0,1345;-0,4679;-0,0220;-0,0018;-0,0055;37,58629833;36,90421833;0,71340501;714,60000000;
26,522769;-0,0343;0,0679;0,2458;0,0116;-0,0031;-0,0018;37,58629833;36,90421833;0,71340501;714,60000000;
26,613688;-0,3415;0,2106;0,0059;0,0257;-0,0226;-0,0049;37,58629833;36,90421833;0,71340501;714,60000000;
26,714578;0,2238;-0,1703;-0,2436;-0,0165;0,0012;-0,0043;37,58629833;36,90421833;0,71340501;714,60000000;
26,814265;-0,4319;-0,0783;-0,1548;0,0086;-0,0055;-0,0037;37,58629833;36,90421833;0,71340501;714,60000000;
26,915376;0,2364;-0,0338;-0,2315;-0,0140;0,0195;-0,0006;37,58629833;36,90421833;0,71340501;714,60000000;
27,015757;0,1863;0,0414;-0,3554;0,0189;0,0079;0,0037;37,58629833;36,90421833;0,71340501;714,60000000;
27,116191;-0,1771;-0,2480;-0,2762;-0,0134;-0,0067;0,0012;37,58629833;36,90421833;0,71340501;714,60000000;
27,216645;-0,1570;-0,0323;0,3125;-0,0122;0,0000;-0,0037;37,58629833;36,90421833;0,71340501;714,60000000;
27,317009;-0,1765;-0,1304;0,2267;-0,0122;0,0202;-0,0024;37,58629833;36,90421833;0,71340501;714,60000000;
27,417455;0,0892;-0,3018;-0,1904;-0,0086;-0,0134;0,0006;37,58629833;36,90421833;0,71340501;714,60000000;
27,517923;-0,2416;0,2405;-0,2547;0,0055;-0,0037;-0,0049;37,58629833;36,90421833;0,71340501;714,60000000;
27,617978;0,4663;-0,1010;-0,1135;0,0122;-0,0177;0,0061;37,58629833;36,90421833;0,71340501;714,60000000;
27,719085;-0,1660;0,1761;-0,4087;-0,0043;-0,0098;0,0006;37,58629833;36,90421833;0,71340501;714,60000000;
27,818454;0,0866;-0,1511;-0,1454;-0,0061;0,0018;-0,0037;37,58629833;36,90421833;0,71340501;714,60000000;
27,919474;-0,2791;-0,4290;-0,0665;0,0012;0,0073;0,0049;37,58629833;36,90421833;0,71340501;714,60000000;
28,019887;-0,2329;-0,6341;0,0005;0,0000;-0,0122;0,0049;37,58629833;36,90421833;0,71340501;714,60000000;
28,120267;-0,2807;0,0876;-0,0337;0,0055;-0,0104;0,0024;37,58629833;36,90421833;0,71340501;714,60000000;
28,220447;0,0783;-0,2288;-0,2259;-0,0024;0,0171;0,0006;37,58629833;36,90421833;0,71340501;714,60000000;
28,321321;-0,3443;0,3954;0,1741;0,0104;0,0031;0,0037;37,58629833;36,90421833;0,71340501;714,60000000;
28,421515;0,2500;-0,3874;-0,2837;-0,0110;0,0098;-0,0049;37,58629833;36,90421833;0,71340501;714,60000000;
28,521787;-0,1086;0,3523;0,1234;0,0134;-0,0116;0,0000;37,58629833;36,90421833;0,71340501;714,60000000;
28,622180;0,2793;0,3539;0,3101;0,0250;0,0147;-0,0067;37,58629833;36,90421833;0,71340501;714,60000000;
28,722786;-0,0716;-0,0265;-0,5393;-0,0140;0,0214;-0,0006;37,58629833;36,90421833;0,71340501;714,60000000;
28,823008;0,3251;-0,0987;-0,1417;-0,0092;0,0275;-0,0018;37,58629833;36,90421833;0,71340501;714,60000000;
28,924014;-0,1365;0,1192;0,0761;0,0165;0,0000;-0,0006;37,58629833;36,90421833;0,71340501;714,60000000;
29,023883;-0,3218;0,1719;0,0260;0,0208;0,0092;-0,0043;37,58629833;36,90421833;0,71340501;714,60000000;
29,124279;-0,2464;0,1278;0,2123;0,0037;0,0214;-0,0031;37,58629833;36,90421833;0,71340501;714,60000000;
29,224651;-0,0835;0,0144;0,4901;-0,0385;0,0244;-0,0037;37,58629833;36,90421833;0,71340501;714,60000000;
29,325321;0,1989;-0,0783;-0,5292;-0,0134;-0,0037;0,0006;37,58629833;36,90421833;0,71340501;714,60000000;
29,425076;-0,1125;0,0849;-0,0577;0,0507;-0,0189;-0,0037;37,58629833;36,90421833;0,71340501;714,60000000;
29,526098;0,0743;-0,0547;-0,2877;-0,0452;0,0024;0,0000;37,58629833;36,90421833;0,71340501;714,60000000;
29,626484;-0,0174;0,0349;0,4093;0,0147;-0,0024;-0,0049;37,58629833;36,90421833;0,71340501;714,60000000;
29,727091;0,0405;-0,0510;0,0142;0,0171;-0,0018;-0,0018;37,58629833;36,90421833;0,71340501;714,60000000;
29,827062;-0,0247;-0,0840;0,0991;0,0110;-0,0024;-0,0061;37,58629833;36,90421833;0,71340501;715,70000000;
29,927988;-0,0456;0,0102;0,0829;0,0104;0,0000;-0,0024;37,58630333;36,90420833;0,33353999;715,70000000;
30,028342;0,0309;0,0180;-0,1177;0,0049;0,0073;-0,0024;37,58630333;36,90420833;0,33353999;715,70000000;
30,128873;0,0780;0,0824;0,1200;0,0006;0,0073;-0,0018;37,58630333;36,90420833;0,33353999;715,70000000;
30,229144;0,0432;-0,0273;0,0219;-0,0012;0,0147;0,0012;37,58630333;36,90420833;0,33353999;715,70000000;
30,329564;0,0394;-0,1342;0,0197;-0,0024;0,0043;-0,0012;37,58630333;36,90420833;0,33353999;715,70000000;
30,430202;-0,0872;-0,1483;-0,0735;0,0055;-0,0165;-0,0018;37,58630333;36,90420833;0,33353999;715,70000000;
30,531025;0,1443;0,1132;-0,1356;-0,0012;0,0202;-0,0037;37,58630333;36,90420833;0,33353999;715,70000000;
30,631145;0,0585;0,0447;-0,0897;0,0037;0,0092;-0,0006;37,58630333;36,90420833;0,33353999;715,70000000;
30,731356;0,0233;-0,0372;-0,0560;0,0037;0,0208;0,0012;37,58630333;36,90420833;0,33353999;715,70000000;
30,831599;-0,1704;-0,1204;-0,2498;-0,0024;-0,0128;-0,0006;37,58630333;36,90420833;0,33353999;715,70000000;
30,932720;0,2042;0,1065;-0,1733;-0,0055;0,0232;-0,0006;37,58630333;36,90420833;0,33353999;715,70000000;
31,033258;-0,0821;-0,0983;0,1308;0,0134;-0,0098;-0,0018;37,58630333;36,90420833;0,33353999;715,70000000;
31,133785;-0,0885;-0,0911;-0,2359;-0,0006;-0,0031;-0,0018;37,58630333;36,90420833;0,33353999;715,70000000;
31,233867;-0,1229;0,0604;-0,1229;-0,0037;0,0049;-0,0031;37,58630333;36,90420833;0,33353999;715,70000000;
31,334549;0,1202;0,1606;-0,2211;0,0067;-0,0024;0,0006;37,58630333;36,90420833;0,33353999;715,70000000;
31,435011;-0,0726;-0,1135;-0,1277;0,0024;-0,0055;-0,0031;37,58630333;36,90420833;0,33353999;715,70000000;
31,535602;-0,1878;-0,0992;-0,1158;-0,0024;0,0006;0,0000;37,58630333;36,90420833;0,33353999;715,70000000;
31,635663;0,1461;0,0996;-0,2284;-0,0018;0,0055;-0,0006;37,58630333;36,90420833;0,33353999;715,70000000;
31,736346;-0,0014;-0,0199;-0,2548;-0,0006;-0,0073;0,0000;37,58630333;36,90420833;0,33353999;715,70000000;
31,836503;0,0765;-0,0918;0,1951;-0,0049;-0,0104;-0,0012;37,58630333;36,90420833;0,33353999;715,70000000;
31,937340;-0,1219;-0,0734;-0,2647;-0,0043;0,0031;-0,0018;37,58630333;36,90420833;0,33353999;715,70000000;
32,038012;0,0699;0,0885;-0,0516;0,0000;-0,0055;0,0000;37,58630333;36,90420833;0,33353999;715,70000000;
32,137477;-0,0678;-0,1488;-0,0181;0,0043;-0,0037;-0,0012;37,58630333;36,90420833;0,33353999;715,70000000;
32,238438;-0,1218;0,0854;-0,2431;-0,0037;0,0073;-0,0012;37,58630333;36,90420833;0,33353999;715,70000000;
32,338996;0,0788;0,0147;-0,1521;0,0012;0,0006;0,0000;37,58630333;36,90420833;0,33353999;715,70000000;
32,439335;-0,0359;-0,1681;-0,0494;0,0031;0,0000;-0,0012;37,58630333;36,90420833;0,33353999;715,70000000;
32,539821;-0,0975;0,0972;-0,1140;0,0006;-0,0043;-0,0012;37,58630333;36,90420833;0,33353999;715,70000000;
32,648398;0,0240;0,0803;-0,0017;0,0024;0,0079;-0,0024;37,58630333;36,90420833;0,33353999;715,70000000;
32,740626;-0,0188;-0,0411;-0,0639;0,0079;0,0092;-0,0006;37,58630333;36,90420833;0,33353999;715,70000000;
32,840737;-0,1729;-0,1571;-0,1190;-0,0018;-0,0018;-0,0006;37,58630333;36,90420833;0,33353999;716,20000000;
32,941729;0,1626;0,1483;-0,0208;0,0073;0,0061;-0,0024;37,58630167;36,90419500;0,00000000;716,20000000;
33,042139;-0,0182;-0,0664;-0,1959;-0,0037;0,0134;0,0012;37,58630167;36,90419500;0,00000000;716,20000000;
33,142462;0,0439;-0,1962;-0,0472;0,0024;-0,0031;-0,0012;37,58630167;36,90419500;0,00000000;716,20000000;
33,243324;-0,0350;-0,0128;-0,1717;0,0006;-0,0086;-0,0037;37,58630167;36,90419500;0,00000000;716,20000000;
33,343366;-0,0793;0,0084;-0,1215;-0,0024;0,0037;-0,0006;37,58630167;36,90419500;0,00000000;716,20000000;
33,444049;0,1190;0,1266;-0,0064;0,0079;0,0000;0,0006;37,58630167;36,90419500;0,00000000;716,20000000;
33,543409;-0,0182;-0,0679;-0,0473;0,0073;0,0018;-0,0006;37,58630167;36,90419500;0,00000000;716,20000000;
33,644455;-0,1049;-0,1746;-0,2461;-0,0055;-0,0067;0,0000;37,58630167;36,90419500;0,00000000;716,20000000;
33,744572;0,0343;0,1387;-0,3178;-0,0012;0,0092;-0,0024;37,58630167;36,90419500;0,00000000;716,20000000;
33,844914;0,0713;0,1868;-0,0736;0,0165;-0,0037;0,0000;37,58630167;36,90419500;0,00000000;716,20000000;
33,945542;-0,0100;-0,1114;0,1104;0,0000;0,0006;0,0000;37,58630167;36,90419500;0,00000000;716,20000000;
34,046207;-0,1463;-0,2557;-0,0619;-0,0104;0,0006;-0,0006;37,58630167;36,90419500;0,00000000;716,20000000;
34,146569;-0,0612;0,0460;-0,4257;-0,0067;0,0183;-0,0024;37,58630167;36,90419500;0,00000000;716,20000000;
34,247094;0,1273;0,1032;-0,0186;0,0104;-0,0079;0,0006;37,58630167;36,90419500;0,00000000;716,20000000;
34,347535;0,0839;0,0091;0,1297;0,0049;0,0073;-0,0012;37,58630167;36,90419500;0,00000000;716,20000000;
34,447886;0,0048;-0,2040;0,1392;-0,0171;0,0024;-0,0012;37,58630167;36,90419500;0,00000000;716,20000000;
34,548310;-0,0737;-0,2254;-0,2149;-0,0061;0,0024;0,0000;37,58630167;36,90419500;0,00000000;716,20000000;
34,649358;0,0406;0,1117;-0,2499;0,0055;0,0092;0,0006;37,58630167;36,90419500;0,00000000;716,20000000;
34,749175;0,1053;0,1457;-0,0968;0,0055;-0,0177;-0,0024;37,58630167;36,90419500;0,00000000;716,20000000;
34,849793;0,0301;0,0130;0,1233;0,0250;-0,0159;0,0006;37,58630167;36,90419500;0,00000000;716,20000000;
34,950673;-0,0361;-0,2256;-0,1211;0,0006;-0,0079;-0,0018;37,58630167;36,90419500;0,00000000;716,20000000;
35,051033;-0,1860;0,0217;-0,3175;-0,0049;-0,0122;-0,0018;37,58630167;36,90419500;0,00000000;716,20000000;
35,151655;0,1327;0,2852;-0,2673;0,0098;-0,0086;-0,0012;37,58630167;36,90419500;0,00000000;716,20000000;
35,252093;-0,0551;-0,0930;0,0127;0,0086;0,0000;0,0012;37,58630167;36,90419500;0,00000000;716,20000000;
35,351925;-0,1371;-0,1709;-0,0162;0,0031;-0,0134;-0,0024;37,58630167;36,90419500;0,00000000;716,20000000;
35,452754;-0,0351;0,0341;-0,3730;-0,0079;0,0037;-0,0018;37,58630167;36,90419500;0,00000000;716,20000000;
35,553188;0,1158;0,1453;-0,0373;0,0037;0,0043;-0,0012;37,58630167;36,90419500;0,00000000;716,20000000;
35,653816;0,1799;0,1565;-0,1471;0,0079;0,0006;0,0000;37,58630167;36,90419500;0,00000000;716,20000000;
35,754062;0,0478;-0,0738;0,0442;0,0086;0,0073;0,0012;37,58630167;36,90419500;0,00000000;716,20000000;
35,854157;0,0292;-0,1394;0,1137;-0,0055;-0,0134;0,0000;37,58630167;36,90419500;0,00000000;716,20000000;
35,955215;-0,1023;0,0120;-0,2672;0,0024;0,0183;-0,0043;37,58630167;36,90419500;0,00000000;716,20000000;
36,055508;0,1377;0,0902;-0,0896;0,0122;0,0128;0,0024;37,58630167;36,90419500;0,00000000;716,20000000;
36,156138;0,0248;-0,1114;0,1856;0,0006;-0,0043;-0,0031;37,58630167;36,90419500;0,00000000;716,20000000;
36,256585;-0,1713;-0,0897;-0,1906;0,0012;0,0055;-0,0018;37,58630167;36,90419500;0,00000000;716,20000000;
36,356926;0,2136;0,1964;-0,1882;0,0110;0,0024;0,0000;37,58630167;36,90419500;0,00000000;716,20000000;
36,457395;-0,0302;-0,0244;0,0173;0,0122;-0,0073;-0,0037;37,58630167;36,90419500;0,00000000;716,20000000;
36,557779;-0,0602;-0,2379;-0,0707;-0,0220;0,0183;0,0018;37,58630167;36,90419500;0,00000000;716,20000000;
36,658109;-0,0073;0,1417;-0,3901;-0,0281;0,0635;-0,0110;37,58630167;36,90419500;0,00000000;716,20000000;
36,758205;-0,0552;0,0444;-0,0576;0,0098;-0,0061;0,0000;37,58630167;36,90419500;0,00000000;716,20000000;
36,858603;0,0493;-0,1292;-0,0459;0,0031;0,0049;-0,0031;37,58630167;36,90419500;0,00000000;716,20000000;
36,959372;-0,1517;0,1083;-0,2445;-0,0061;-0,0024;-0,0012;37,58630167;36,90419500;0,00000000;716,20000000;
37,059902;0,1092;0,2051;-0,1512;0,0067;-0,0122;0,0000;37,58630167;36,90419500;0,00000000;716,20000000;
37,160208;-0,0455;-0,0845;-0,1510;0,0031;0,0000;-0,0006;37,58630167;36,90419500;0,00000000;716,20000000;
37,260749;-0,2188;-0,1066;-0,0908;-0,0049;0,0147;0,0000;37,58630167;36,90419500;0,00000000;716,20000000;
37,361168;0,1816;0,1694;-0,3466;0,0037;-0,0086;-0,0037;37,58630167;36,90419500;0,00000000;716,20000000;
37,461614;0,0126;-0,0717;-0,1341;0,0000;-0,0018;-0,0006;37,58630167;36,90419500;0,00000000;716,20000000;
37,561872;-0,0350;-0,1768;0,0696;-0,0116;0,0116;-0,0018;37,58630167;36,90419500;0,00000000;716,20000000;
37,662628;-0,1221;-0,0621;-0,3630;-0,0202;0,0079;-0,0018;37,58630167;36,90419500;0,00000000;716,20000000;
37,763113;0,1755;0,1413;-0,1634;-0,0037;0,0257;-0,0018;37,58630167;36,90419500;0,00000000;716,20000000;
37,863415;0,0318;-0,0867;0,2279;0,0122;0,0244;0,0031;37,58630167;36,90419500;0,00000000;716,20000000;
37,965118;0,2240;-0,1337;0,4567;-0,0629;-0,0415;0,0055;37,58630167;36,90419500;0,00000000;716,20000000;
38,065212;-0,1673;-0,1880;-0,0491;-0,0043;-0,0018;-0,0024;37,58630167;36,90419500;0,00000000;716,20000000;
38,165681;0,2045;0,2174;-0,2390;0,0220;-0,0568;0,0012;37,58630167;36,90419500;0,00000000;716,20000000;
38,266660;-0,0098;-0,0472;-0,0308;0,0079;0,0018;-0,0031;37,58630167;36,90419500;0,00000000;716,20000000;
38,366798;-0,0453;-0,1279;-0,1779;0,0018;-0,0134;-0,0024;37,58630167;36,90419500;0,00000000;716,20000000;
38,467165;0,1151;0,1985;-0,3321;0,0177;-0,0177;-0,0024;37,58630167;36,90419500;0,00000000;716,20000000;
38,568249;0,0450;0,0311;0,1228;0,0153;0,0012;0,0024;37,58630167;36,90419500;0,00000000;716,20000000;
38,668022;0,0773;-0,0718;0,1687;-0,0067;0,0049;0,0012;37,58630167;36,90419500;0,00000000;716,20000000;
38,776168;-0,0051;-0,1594;0,2292;-0,0128;-0,0037;-0,0006;37,58630167;36,90419500;0,00000000;716,20000000;
38,868598;0,1627;0,1077;-0,2877;0,0018;-0,0128;0,0000;37,58630167;36,90419500;0,00000000;716,20000000;
38,968996;-0,0117;-0,1737;0,1913;0,0049;0,0171;-0,0012;37,58630167;36,90419500;0,00000000;716,20000000;
39,069688;-0,1092;0,1070;-0,4789;-0,0165;-0,0110;-0,0024;37,58630167;36,90419500;0,00000000;716,20000000;
39,170305;0,1689;0,1060;-0,1797;0,0061;-0,0024;-0,0018;37,58630167;36,90419500;0,00000000;716,20000000;
39,270527;0,0046;-0,2274;0,1579;0,0037;0,0208;0,0012;37,58630167;36,90419500;0,00000000;716,20000000;
39,370804;-0,0982;0,0725;-0,2364;-0,0073;0,0226;-0,0012;37,58630167;36,90419500;0,00000000;716,20000000;
39,471481;0,1337;0,0864;-0,2020;0,0086;0,0000;0,0000;37,58630167;36,90419500;0,00000000;716,20000000;
39,572037;0,0033;-0,1338;0,2931;0,0195;-0,0012;0,0006;37,58630167;36,90419500;0,00000000;716,20000000;
39,672534;-0,1933;-0,1227;-0,2443;-0,0086;-0,0098;-0,0006;37,58630167;36,90419500;0,00000000;716,20000000;
39,772539;0,2216;0,1015;-0,2209;0,0086;-0,0195;-0,0006;37,58630167;36,90419500;0,00000000;716,20000000;
39,875836;0,1755;0,1740;-0,2382;0,0116;-0,0098;0,0018;37,58630167;36,90419500;0,00000000;716,20000000;
39,976057;-0,0584;-0,1463;-0,0372;0,0049;-0,0012;-0,0006;37,58630167;36,90419500;0,00000000;716,20000000;
40,076590;-0,2068;-0,0817;-0,2240;-0,0098;0,0043;-0,0031;37,58630167;36,90419500;0,00000000;716,20000000;
40,177065;0,1883;0,2093;-0,2786;0,0073;-0,0067;-0,0006;37,58630167;36,90419500;0,00000000;716,20000000;
40,277485;-0,0847;-0,1268;-0,0152;0,0110;-0,0067;-0,0006;37,58630167;36,90419500;0,00000000;716,20000000;
40,377871;-0,0768;-0,1565;0,0106;-0,0073;-0,0189;-0,0024;37,58630167;36,90419500;0,00000000;716,20000000;
40,478294;0,0422;0,2107;-0,4111;0,0024;0,0000;-0,0006;37,58630167;36,90419500;0,00000000;716,20000000;
40,579025;-0,0663;-0,0146;-0,1119;0,0055;-0,0110;0,0012;37,58630167;36,90419500;0,00000000;716,20000000;
40,678776;0,0268;-0,1291;0,0364;0,0049;0,0037;-0,0012;37,58630167;36,90419500;0,00000000;716,20000000;
40,779046;-0,0681;0,0418;-0,2823;-0,0086;0,0073;-0,0012;37,58630167;36,90419500;0,00000000;716,20000000;
40,879101;0,1126;0,1197;-0,1006;0,0098;-0,0208;0,0006;37,58630167;36,90419500;0,00000000;716,20000000;
40,980120;-0,0295;-0,0673;0,0191;0,0086;0,0134;0,0018;37,58630167;36,90419500;0,00000000;716,20000000;
41,080317;-0,2085;-0,1138;-0,2323;-0,0098;-0,0079;0,0012;37,58630167;36,90419500;0,00000000;716,20000000;
41,181204;0,2013;0,1744;-0,1146;-0,0006;0,0189;-0,0012;37,58630167;36,90419500;0,00000000;716,20000000;
41,281128;-0,0870;-0,1864;0,0153;0,0092;-0,0043;0,0006;37,58630167;36,90419500;0,00000000;716,20000000;
41,381818;-0,1532;-0,0506;-0,2148;-0,0092;0,0098;0,0000;37,58630167;36,90419500;0,00000000;716,20000000;
41,482306;0,1975;0,1091;-0,1162;0,0018;-0,0067;-0,0012;37,58630167;36,90419500;0,00000000;716,20000000;
41,582457;-0,0211;-0,0982;0,0535;0,0153;-0,0134;-0,0012;37,58630167;36,90419500;0,00000000;716,20000000;
41,682640;-0,1067;-0,2846;-0,1126;0,0043;-0,0226;0,0000;37,58630167;36,90419500;0,00000000;716,20000000;
41,783116;0,1843;0,1071;-0,1344;0,0061;-0,0140;-0,0049;37,58630167;36,90419500;0,00000000;716,20000000;
41,883533;0,1447;0,1303;-0,2687;-0,0031;0,0049;-0,0049;37,58630167;36,90419500;0,00000000;716,20000000;
41,983962;0,0462;0,0276;-0,0693;0,0177;-0,0104;-0,0006;37,58630167;36,90419500;0,00000000;716,20000000;
42,084628;0,0333;-0,0009;0,1504;-0,0073;-0,0006;-0,0006;37,58630167;36,90419500;0,00000000;716,20000000;
42,184838;-0,2060;-0,2280;-0,1223;0,0006;0,0055;-0,0037;37,58630167;36,90419500;0,00000000;716,20000000;
42,285568;0,1650;0,1801;-0,2995;0,0043;-0,0043;0,0000;37,58630167;36,90419500;0,00000000;716,20000000;
42,386019;0,0225;0,0997;-0,1606;0,0140;0,0012;0,0012;37,58630167;36,90419500;0,00000000;716,20000000;
42,486677;0,0230;-0,1725;0,1029;-0,0031;-0,0086;-0,0012;37,58630167;36,90419500;0,00000000;716,20000000;
42,586166;-0,1596;0,1169;-0,2708;-0,0061;0,0086;-0,0049;37,58630167;36,90419500;0,00000000;716,20000000;
42,687022;0,1502;0,1628;-0,2681;0,0116;-0,0012;0,0012;37,58630167;36,90419500;0,00000000;716,20000000;
42,787477;-0,0150;-0,1794;0,0791;0,0006;-0,0092;-0,0031;37,58630167;36,90419500;0,00000000;716,20000000;
42,887948;-0,2103;-0,0410;-0,1005;-0,0049;0,0104;-0,0012;37,58630167;36,90419500;0,00000000;716,20000000;
42,989872;0,1678;0,2037;-0,2105;0,0037;-0,0037;-0,0031;37,58630167;36,90419500;0,00000000;716,20000000;
43,090034;-0,0822;-0,0967;-0,1244;0,0024;0,0006;0,0012;37,58630167;36,90419500;0,00000000;716,20000000;
43,190307;-0,0469;-0,1083;0,0505;0,0031;0,0012;-0,0012;37,58630167;36,90419500;0,00000000;716,20000000;
43,291008;0,0244;0,0190;-0,2202;-0,0049;0,0116;-0,0024;37,58630167;36,90419500;0,00000000;716,20000000;
43,391597;0,1051;0,0966;-0,0839;0,0024;-0,0061;0,0000;37,58630167;36,90419500;0,00000000;716,20000000;
43,491540;-0,0206;-0,0444;-0,0169;0,0110;0,0055;0,0006;37,58630167;36,90419500;0,00000000;716,20000000;
43,591941;-0,2071;-0,1388;-0,1869;-0,0061;-0,0073;-0,0006;37,58630167;36,90419500;0,00000000;716,20000000;
43,692504;0,1956;0,1956;-0,1437;0,0012;0,0043;-0,0037;37,58630167;36,90419500;0,00000000;716,20000000;
43,792597;-0,0170;-0,0694;-0,0073;0,0116;-0,0012;0,0000;37,58630167;36,90419500;0,00000000;716,20000000;
43,893505;-0,0575;-0,2241;0,1124;0,0061;0,0073;-0,0043;37,58630167;36,90419500;0,00000000;716,20000000;
43,993989;-0,1917;-0,0508;-0,1893;-0,0018;0,0024;-0,0037;37,58630167;36,90419500;0,00000000;716,20000000;
44,094258;0,2341;0,1418;-0,2251;0,0159;-0,0086;0,0024;37,58630167;36,90419500;0,00000000;716,20000000;
44,194493;-0,0728;-0,2480;0,1435;0,0049;-0,0043;-0,0037;37,58630167;36,90419500;0,00000000;716,20000000;
44,294974;-0,1186;0,0453;-0,1682;0,0000;0,0012;-0,0024;37,58630167;36,90419500;0,00000000;716,20000000;
44,396441;0,2222;0,1164;-0,1636;0,0086;-0,0098;0,0012;37,58630167;36,90419500;0,00000000;716,20000000;
44,496082;-0,0492;-0,1437;0,0232;0,0098;-0,0037;-0,0031;37,58630167;36,90419500;0,00000000;716,20000000;
44,596421;-0,2133;-0,1885;-0,1278;-0,0049;0,0049;-0,0037;37,58630167;36,90419500;0,00000000;716,20000000;
44,696852;0,2529;0,1733;-0,1398;-0,0031;0,0043;0,0018;37,58630167;36,90419500;0,00000000;716,20000000;
44,797360;-0,0541;-0,1776;0,0135;0,0104;0,0031;-0,0024;37,58630167;36,90419500;0,00000000;716,20000000;
44,897869;-0,0680;-0,1128;-0,0584;-0,0018;-0,0128;-0,0012;37,58630167;36,90419500;0,00000000;716,20000000;
44,998787;0,1809;0,1314;-0,1709;0,0024;0,0018;-0,0031;37,58630167;36,90419500;0,00000000;716,20000000;
45,098911;-0,0721;-0,1823;-0,0250;0,0055;-0,0110;0,0006;37,58630167;36,90419500;0,00000000;716,20000000;
45,199562;-0,0982;-0,1376;-0,0802;-0,0031;-0,0049;-0,0012;37,58630167;36,90419500;0,00000000;716,20000000;
45,299778;0,2054;0,0736;-0,1783;-0,0012;0,0024;-0,0043;37,58630167;36,90419500;0,00000000;716,20000000;
45,400325;-0,0346;-0,0978;0,0037;0,0122;-0,0067;-0,0012;37,58630167;36,90419500;0,00000000;716,20000000;
45,500011;-0,0666;-0,1860;-0,1087;-0,0037;0,0000;-0,0024;37,58630167;36,90419500;0,00000000;716,20000000;
45,600260;0,1703;0,1603;-0,1994;-0,0012;0,0055;-0,0037;37,58630167;36,90419500;0,00000000;716,20000000;
45,700440;-0,0327;-0,1073;-0,0246;0,0079;-0,0086;0,0012;37,58630167;36,90419500;0,00000000;716,20000000;
45,800933;-0,0626;-0,1602;-0,1873;-0,0055;-0,0012;-0,0018;37,58630167;36,90419500;0,00000000;716,20000000;
45,902000;0,1829;0,1702;-0,1298;0,0000;0,0012;-0,0024;37,58630167;36,90419500;0,00000000;716,20000000;
46,002690;-0,0726;-0,0587;-0,0387;0,0202;-0,0147;0,0037;37,58630167;36,90419500;0,00000000;716,20000000;
46,103270;0,0273;-0,0932;0,0210;0,0061;-0,0116;-0,0049;37,58630167;36,90419500;0,00000000;716,20000000;
46,203522;0,0220;0,0772;-0,2064;-0,0073;0,0104;-0,0031;37,58630167;36,90419500;0,00000000;716,20000000;
46,303849;0,0367;0,1647;-0,2158;-0,0079;0,0037;-0,0018;37,58630167;36,90419500;0,00000000;716,20000000;
46,404585;0,0093;-0,1558;0,0571;0,0079;-0,0024;-0,0061;37,58630167;36,90419500;0,00000000;716,20000000;
46,504982;0,0545;-0,2319;-0,0700;-0,0006;-0,0098;-0,0024;37,58630167;36,90419500;0,00000000;716,20000000;
46,605445;-0,0346;0,0855;-0,2616;-0,0061;0,0073;-0,0018;37,58630167;36,90419500;0,00000000;716,20000000;
46,705692;0,0975;0,2550;-0,2257;0,0104;-0,0043;0,0006;37,58630167;36,90419500;0,00000000;716,20000000;
46,805456;-0,0128;-0,2371;0,1646;-0,0073;0,0061;-0,0018;37,58630167;36,90419500;0,00000000;716,20000000;
46,906609;-0,1157;0,3259;-0,1900;-0,0092;0,0104;-0,0031;37,58630167;36,90419500;0,00000000;716,20000000;
47,007551;0,0476;0,2602;0,0919;0,0055;0,0024;0,0018;37,58630167;36,90419500;0,00000000;716,20000000;
47,109006;0,0253;0,2344;-0,3684;0,0024;-0,0238;-0,0043;37,58630167;36,90419500;0,00000000;716,20000000;
47,208821;-0,1316;-0,3795;0,1169;-0,0098;0,0073;0,0037;37,58630167;36,90419500;0,00000000;716,20000000;
47,309362;0,1973;0,5368;0,8060;0,0489;0,0165;-0,0006;37,58630167;36,90419500;0,00000000;716,20000000;
47,409789;0,0710;0,3470;-0,8773;-0,0086;-0,0098;-0,0031;37,58630167;36,90419500;0,00000000;716,20000000;
47,510177;-0,2103;-0,2357;0,1496;-0,0281;0,0171;0,0031;37,58630167;36,90419500;0,00000000;716,20000000;
47,610772;-0,1443;0,5928;-0,4942;0,0012;-0,0171;-0,0043;37,58630167;36,90419500;0,00000000;716,20000000;
47,711022;0,0493;0,2671;0,0516;0,0287;-0,0086;0,0012;37,58630167;36,90419500;0,00000000;716,20000000;
47,810630;0,0075;-0,3221;0,7748;0,0214;0,0012;0,0000;37,58630167;36,90419500;0,00000000;716,20000000;
47,914608;-0,0624;-0,2451;0,9641;-0,0092;0,0049;0,0037;37,58630167;36,90419500;0,00000000;716,20000000;
48,011915;-0,1209;-0,0454;-1,0281;-0,0409;0,0086;0,0000;37,58630167;36,90419500;0,00000000;716,20000000;
48,112583;0,0915;-0,0656;-0,5466;0,0116;0,0018;0,0000;37,58630167;36,90419500;0,00000000;716,20000000;
48,212922;0,0396;-0,1577;0,3112;0,0324;0,0012;-0,0018;37,58630167;36,90419500;0,00000000;716,20000000;
48,313419;0,0811;-0,2049;0,2976;0,0232;-0,0073;-0,0037;37,58630167;36,90419500;0,00000000;716,20000000;
48,413620;-0,0150;0,0956;0,1841;0,0318;0,0006;-0,0006;37,58630167;36,90419500;0,00000000;716,20000000;
48,514627;0,0522;-0,0555;0,2463;-0,0122;0,0049;0,0031;37,58630167;36,90419500;0,00000000;716,20000000;
48,614932;-0,0977;-0,2168;0,1559;-0,0244;0,0073;-0,0006;37,58630167;36,90419500;0,00000000;716,20000000;
48,715205;-0,1655;-0,2192;-0,3657;-0,0134;0,0244;-0,0018;37,58630167;36,90419500;0,00000000;716,20000000;
48,814926;0,0591;0,1584;-0,4467;0,0067;-0,0037;0,0012;37,58630167;36,90419500;0,00000000;716,20000000;
48,931635;-0,0113;-0,0968;-0,3244;-0,0073;-0,0006;-0,0012;37,58630167;36,90419500;0,00000000;716,20000000;
49,015999;0,1241;-0,0784;-0,0898;0,0024;0,0012;-0,0006;37,58630167;36,90419500;0,00000000;716,20000000;
49,116597;-0,0837;-0,3486;0,2358;-0,0208;0,0153;-0,0006;37,58630167;36,90419500;0,00000000;716,20000000;
49,216869;-0,0756;-0,2146;-0,0131;-0,0140;0,0110;-0,0037;37,58630167;36,90419500;0,00000000;716,20000000;
49,317399;0,1512;0,1823;-0,2186;0,0110;0,0031;-0,0018;37,58630167;36,90419500;0,00000000;716,20000000;
49,417523;0,0809;0,0600;0,2247;0,0189;-0,0116;0,0018;37,58630167;36,90419500;0,00000000;716,20000000;
49,518159;-0,0083;-0,1384;0,2461;-0,0140;0,0415;0,0043;37,58630167;36,90419500;0,00000000;716,20000000;
49,619002;-0,1185;-0,1521;-0,4592;-0,0183;-0,0049;-0,0018;37,58630167;36,90419500;0,00000000;716,20000000;
49,719296;0,1123;0,3447;-0,4172;0,0000;-0,0324;-0,0031;37,58630167;36,90419500;0,00000000;716,20000000;
49,818768;0,0240;0,2221;-0,0400;0,0220;-0,0006;0,0043;37,58630167;36,90419500;0,00000000;716,20000000;
49,919791;0,0023;-0,3245;0,0386;-0,0018;-0,0110;-0,0037;37,58630167;36,90419500;0,00000000;716,20000000;
50,019818;-0,0483;0,3142;-0,2588;-0,0067;0,0134;-0,0031;37,58630167;36,90419500;0,00000000;716,20000000;
50,120769;0,0720;0,1884;-0,1916;0,0043;0,0055;0,0043;37,58630167;36,90419500;0,00000000;716,20000000;
50,221159;0,0260;-0,3488;0,0072;0,0000;0,0092;-0,0031;37,58630167;36,90419500;0,00000000;716,20000000;
50,321759;-0,0372;0,3934;-0,3115;-0,0079;0,0098;-0,0012;37,58630167;36,90419500;0,00000000;716,20000000;
50,422947;0,0283;0,1720;-0,0003;0,0134;-0,0079;0,0018;37,58630167;36,90419500;0,00000000;716,20000000;
50,522750;0,0266;-0,2142;0,1359;0,0055;0,0079;0,0000;37,58630167;36,90419500;0,00000000;716,20000000;
50,623252;-0,1025;0,1812;-0,2403;-0,0073;0,0012;-0,0024;37,58630167;36,90419500;0,00000000;716,20000000;
50,723563;-0,0195;0,3848;-0,3794;0,0055;-0,0012;-0,0037;37,58630167;36,90419500;0,00000000;716,20000000;
50,823590;-0,0593;0,1588;-0,0419;0,0073;0,0061;0,0018;37,58630167;36,90419500;0,00000000;716,20000000;
50,924289;-0,0095;-0,3323;0,0182;-0,0031;-0,0024;-0,0012;37,58630167;36,90419500;0,00000000;716,20000000;
51,024233;-0,0507;0,2124;-0,2881;0,0012;0,0079;-0,0012;37,58630167;36,90419500;0,00000000;716,20000000;
51,125021;0,0753;0,1135;0,0068;0,0116;0,0018;0,0018;37,58630167;36,90419500;0,00000000;716,20000000;
51,225457;-0,0722;-0,2301;0,1146;-0,0122;-0,0006;-0,0012;37,58630167;36,90419500;0,00000000;716,20000000;
51,325969;-0,1764;-0,1221;-0,3356;-0,0018;-0,0037;0,0006;37,58630167;36,90419500;0,00000000;716,20000000;
51,426296;0,2202;0,3476;-0,2160;0,0147;-0,0159;0,0018;37,58630167;36,90419500;0,00000000;716,20000000;
51,526980;-0,0749;-0,2011;0,0736;0,0067;-0,0024;-0,0031;37,58630167;36,90419500;0,00000000;716,20000000;
51,627365;-0,1483;-0,2516;-0,2403;-0,0134;-0,0018;-0,0018;37,58630167;36,90419500;0,00000000;716,20000000;
51,727715;0,1631;0,1942;-0,2378;0,0073;-0,0037;0,0037;37,58630167;36,90419500;0,00000000;716,20000000;
51,827513;-0,0433;-0,1599;-0,1245;0,0159;-0,0189;-0,0055;37,58630167;36,90419500;0,00000000;716,20000000;
51,928014;0,0406;-0,1938;0,1918;-0,0122;-0,0024;0,0006;37,58630167;36,90419500;0,00000000;716,20000000;
52,028697;-0,1343;-0,1764;-0,3083;-0,0018;0,0165;0,0006;37,58630167;36,90419500;0,00000000;716,20000000;
52,129541;0,1158;0,1907;-0,2357;0,0128;-0,0159;-0,0012;37,58630167;36,90419500;0,00000000;716,20000000;
52,230121;0,1174;-0,1092;0,1215;0,0202;-0,0037;0,0000;37,58630167;36,90419500;0,00000000;716,20000000;
52,330701;0,0266;-0,2664;0,0430;-0,0079;-0,0031;-0,0024;37,58630167;36,90419500;0,00000000;716,20000000;
52,431149;-0,0220;0,0063;-0,2947;-0,0061;0,0043;-0,0018;37,58630167;36,90419500;0,00000000;716,20000000;
52,531528;0,0819;0,1305;-0,1342;0,0006;0,0000;-0,0012;37,58630167;36,90419500;0,00000000;716,20000000;
52,632110;-0,0051;0,0134;0,1128;0,0147;0,0079;0,0018;37,58630167;36,90419500;0,00000000;716,20000000;
52,732635;-0,0433;-0,1591;-0,0737;0,0012;-0,0122;-0,0006;37,58630167;36,90419500;0,00000000;716,20000000;
52,832575;-0,1245;0,2919;-0,1651;-0,0055;0,0049;-0,0024;37,58630167;36,90419500;0,00000000;716,20000000;
52,933411;-0,0090;0,3288;-0,2780;0,0067;0,0006;0,0006;37,58630167;36,90419500;0,00000000;716,20000000;
53,033651;0,0929;-0,1337;0,1743;0,0018;-0,0049;0,0037;37,58630167;36,90419500;0,00000000;716,20000000;
53,134257;-0,0188;-0,4193;-0,0151;-0,0110;0,0012;-0,0049;37,58630167;36,90419500;0,00000000;716,20000000;
53,234661;-0,0446;0,5238;-0,2357;0,0122;-0,0006;0,0000;37,58630167;36,90419500;0,00000000;716,20000000;
53,335084;-0,0048;0,2971;0,3577;0,0202;-0,0006;0,0018;37,58630167;36,90419500;0,00000000;716,20000000;
53,435585;-0,0795;-0,0304;0,6075;-0,0360;0,0092;-0,0018;37,58630167;36,90419500;0,00000000;716,20000000;
53,535885;0,2310;0,2073;1,1195;-0,0641;0,0275;0,0012;37,58630167;36,90419500;0,00000000;716,20000000;
53,636074;-0,2993;0,2885;-0,3087;0,0568;-0,0189;0,0012;37,58630167;36,90419500;0,00000000;716,20000000;
53,736810;-0,2063;0,3035;-0,2360;-0,0098;-0,0006;0,0049;37,58630167;36,90419500;0,00000000;716,20000000;
53,837028;0,1179;0,6254;0,4826;0,0122;0,0061;-0,0037;37,58630167;36,90419500;0,00000000;716,20000000;
53,936834;0,0969;0,4923;-0,2878;0,0086;0,0061;-0,0018;37,58630167;36,90419500;0,00000000;716,20000000;
54,037959;0,1161;0,0378;-0,3908;0,0037;-0,0104;0,0031;37,58630167;36,90419500;0,00000000;716,20000000;
54,138254;-0,0157;0,3092;0,0794;0,0220;-0,0079;-0,0006;37,58630167;36,90419500;0,00000000;716,20000000;
54,239173;0,0199;0,2548;0,0202;0,0104;-0,0073;0,0000;37,58630167;36,90419500;0,00000000;716,20000000;
54,339255;0,0212;0,0588;0,3212;0,0110;0,0299;0,0000;37,58630167;36,90419500;0,00000000;716,20000000;
54,439843;-0,0758;0,0834;-0,6422;0,0024;0,0055;0,0024;37,58630167;36,90419500;0,00000000;716,20000000;
54,540376;-0,0204;0,3156;0,3815;0,0086;0,0018;0,0031;37,58630167;36,90419500;0,00000000;716,20000000;
54,640847;-0,0302;-0,1912;0,1428;0,0000;-0,0140;-0,0098;37,58630167;36,90419500;0,00000000;716,20000000;
54,741002;-0,1090;0,0828;-0,5339;0,0214;-0,0421;-0,0067;37,58630167;36,90419500;0,00000000;716,20000000;
54,841063;-0,2336;0,1245;-0,1553;0,0092;-0,0183;-0,0006;37,58630167;36,90419500;0,00000000;716,20000000;
54,941845;0,4398;0,1333;-0,0860;-0,0128;0,0134;-0,0147;37,58630167;36,90419500;0,00000000;716,20000000;
55,042022;0,8246;0,1072;0,0444;0,0293;-0,0232;-0,0226;37,58630167;36,90419500;0,00000000;716,20000000;
55,142638;-0,3654;-0,1249;-0,0235;0,0214;-0,0629;-0,0061;37,58630167;36,90419500;0,00000000;716,20000000;
55,243299;-0,6153;0,3220;0,9976;0,0263;-0,0018;0,0024;37,58630167;36,90419500;0,00000000;716,20000000;
55,343907;0,2564;-0,1014;-0,0220;-0,0031;0,0067;-0,0104;37,58630167;36,90419500;0,00000000;716,20000000;
55,444573;-0,3798;0,5381;-0,5849;-0,0385;0,0764;-0,0061;37,58630167;36,90419500;0,00000000;716,20000000;
55,544990;0,4549;0,4761;1,2457;0,0073;-0,1045;-0,0330;37,58630167;36,90419500;0,00000000;716,20000000;
55,645206;0,4525;0,7430;0,1958;0,0183;-0,1277;-0,0073;37,58630167;36,90419500;0,00000000;716,20000000;
55,745850;-0,4562;-0,1740;-0,4816;-0,0092;0,0776;-0,0153;37,58630167;36,90419500;0,00000000;716,20000000;
55,845497;0,2581;-0,7284;0,7619;-0,0757;-0,0018;-0,0092;37,58630167;36,90419500;0,00000000;718,70000000;
55,946783;-0,4945;-0,3129;1,5265;0,0464;0,0183;-0,0238;37,58630333;36,90421333;0,53119332;718,70000000;
56,057720;-0,1986;0,3963;-0,7970;0,0586;-0,0037;-0,0104;37,58630333;36,90421333;0,53119332;718,70000000;
56,147532;-0,8098;0,1222;-0,0295;0,0373;0,0745;-0,0165;37,58630333;36,90421333;0,53119332;718,70000000;
56,247824;0,4976;-0,5406;0,1575;0,0250;0,0641;-0,0220;37,58630333;36,90421333;0,53119332;718,70000000;
56,348369;-0,1249;-0,9256;0,0853;0,0513;-0,1607;-0,0104;37,58630333;36,90421333;0,53119332;718,70000000;
56,449737;0,2803;0,6791;-0,1085;0,0544;-0,0330;-0,0165;37,58630333;36,90421333;0,53119332;718,70000000;
56,549449;0,6056;-0,1565;0,9423;0,0177;0,1216;0,0110;37,58630333;36,90421333;0,53119332;718,70000000;
56,650039;-1,0894;1,0223;0,2826;-0,0360;-0,1210;-0,0171;37,58630333;36,90421333;0,53119332;718,70000000;
56,750656;-0,4569;-0,0871;-0,8471;0,0189;-0,0794;-0,0079;37,58630333;36,90421333;0,53119332;718,70000000;
56,850545;0,9473;-0,9741;-0,3426;0,0360;0,1130;-0,0147;37,58630333;36,90421333;0,53119332;718,70000000;
56,951483;0,4805;0,5822;0,7471;-0,0165;0,0379;-0,0067;37,58632667;36,90422500;0,79833418;718,70000000;
57,052013;-0,1997;-0,4378;-0,6408;0,0214;-0,0702;-0,0336;37,58632667;36,90422500;0,79833418;718,70000000;
57,151783;-0,6720;-0,0333;0,9529;0,0092;0,0892;0,0153;37,58632667;36,90422500;0,79833418;718,70000000;
57,252595;-0,1567;0,1469;-0,9171;0,0159;0,0580;-0,0214;37,58632667;36,90422500;0,79833418;718,70000000;
57,353018;0,2210;0,4498;0,7568;0,0666;-0,2450;-0,0318;37,58632667;36,90422500;0,79833418;718,70000000;
57,453249;0,6746;-0,3339;-0,8270;-0,0849;0,2297;-0,0140;37,58632667;36,90422500;0,79833418;718,70000000;
57,553832;-0,5522;-0,7932;-0,5382;0,0666;0,0745;-0,0250;37,58632667;36,90422500;0,79833418;718,70000000;
57,654253;-0,7884;-0,2067;0,0963;-0,0507;-0,0287;-0,0275;37,58632667;36,90422500;0,79833418;718,70000000;
57,754927;-0,2847;-1,4158;-0,0692;-0,0018;0,0770;-0,0238;37,58632667;36,90422500;0,79833418;718,70000000;
57,854530;0,5780;-1,3970;0,0456;0,0134;-0,0629;-0,0324;37,58632667;36,90422500;0,79833418;718,80000000;
57,955555;-0,8834;-1,3080;-0,3660;0,0031;0,0073;-0,0373;37,58635833;36,90424000;1,12827110;718,80000000;
58,055881;-0,0645;-0,8962;-0,6427;0,0195;-0,0452;-0,0354;37,58635833;36,90424000;1,12827110;718,80000000;
58,155889;0,1046;-1,1052;-0,3796;-0,0061;0,0745;-0,0183;37,58635833;36,90424000;1,12827110;718,80000000;
58,256370;-0,7707;-1,1279;-0,8467;0,0538;0,0220;-0,0165;37,58635833;36,90424000;1,12827110;718,80000000;
58,357172;0,5765;0,5480;0,8112;-0,0293;-0,0098;-0,0232;37,58635833;36,90424000;1,12827110;718,80000000;
58,457445;0,5298;-0,1637;-1,8614;-0,0037;-0,0696;-0,0385;37,58635833;36,90424000;1,12827110;718,80000000;
58,557851;0,6712;-0,1487;-0,3683;-0,0257;0,0018;-0,0397;37,58635833;36,90424000;1,12827110;718,80000000;
58,658611;0,2997;-0,1980;-1,0717;0,0385;0,1136;-0,0415;37,58635833;36,90424000;1,12827110;718,80000000;
58,758356;0,0621;-0,3901;-0,7975;-0,0067;0,0110;-0,0373;37,58635833;36,90424000;1,12827110;718,80000000;
58,859161;-0,9595;-0,1910;0,0642;0,0446;0,0208;-0,0483;37,58635833;36,90424000;1,12827110;718,40000000;
58,958807;0,3148;0,6773;0,5719;0,0727;-0,1246;-0,0586;37,58640000;36,90424500;1,48960614;718,40000000;
59,059714;-0,2756;0,4321;-0,2815;0,0250;0,0415;-0,0483;37,58640000;36,90424500;1,48960614;718,40000000;
59,159642;0,4665;1,5049;-0,5939;-0,0305;-0,0024;-0,0635;37,58640000;36,90424500;1,48960614;718,40000000;
59,260498;-0,9532;0,8418;-1,7496;-0,0568;0,0189;-0,0556;37,58640000;36,90424500;1,48960614;718,40000000;
59,360933;-0,5373;1,0289;0,6629;-0,0257;-0,0751;-0,0538;37,58640000;36,90424500;1,48960614;718,40000000;
59,461262;0,9218;-0,2449;1,3511;-0,0739;0,1173;-0,0538;37,58640000;36,90424500;1,48960614;718,40000000;
59,561865;-1,2507;0,9421;0,5341;0,1179;-0,2688;-0,0678;37,58640000;36,90424500;1,48960614;718,40000000;
59,662245;1,0386;-0,2237;-0,1537;0,0941;0,1124;-0,0861;37,58640000;36,90424500;1,48960614;718,40000000;
59,762692;-1,1713;0,5839;-2,8141;0,0965;-0,2303;-0,0745;37,58640000;36,90424500;1,48960614;718,40000000;
59,862656;0,8045;0,8334;-3,0763;0,0098;0,0452;-0,1106;37,58640000;36,90424500;1,48960614;718,60000000;
59,963793;-0,7997;-0,0336;2,7609;-0,1894;-0,1051;-0,1240;37,58644000;36,90424833;1,86586809;718,60000000;
60,063797;1,0245;1,1149;3,3023;-0,0483;0,1252;-0,1191;37,58644000;36,90424833;1,86586809;718,60000000;
60,164513;0,4668;0,3596;-1,7422;0,1717;-0,1533;-0,0983;37,58644000;36,90424833;1,86586809;718,60000000;
60,264818;0,8522;-0,5924;-0,9011;0,0599;0,1014;-0,1228;37,58644000;36,90424833;1,86586809;718,60000000;
60,365728;0,8156;-0,6965;-4,1321;0,0929;0,0000;-0,0983;37,58644000;36,90424833;1,86586809;718,60000000;
60,466396;-3,7470;-0,1216;-0,4714;-0,0134;-0,2004;-0,1423;37,58644000;36,90424833;1,86586809;718,60000000;
60,566713;2,2001;-0,2883;0,6376;-0,2651;0,3708;-0,1252;37,58644000;36,90424833;1,86586809;718,60000000;
60,667103;-4,1057;1,1994;-1,0427;-0,0110;-0,0745;-0,1863;37,58644000;36,90424833;1,86586809;718,60000000;
60,767577;0,1427;-0,6119;0,9081;0,0935;0,1741;-0,1289;37,58644000;36,90424833;1,86586809;718,60000000;
60,867724;0,8338;-0,7287;-1,1023;0,0220;-0,0916;-0,1539;37,58644000;36,90424833;1,86586809;718,80000000;
60,968620;0,3029;0,0247;1,3632;0,0018;-0,0208;-0,1350;37,58648333;36,90425000;2,31161761;718,80000000;
61,068862;0,0659;-0,2752;0,1547;0,0721;-0,0110;-0,1747;37,58648333;36,90425000;2,31161761;718,80000000;
61,168646;1,1210;0,0782;-0,3738;-0,0727;-0,0250;-0,1374;37,58648333;36,90425000;2,31161761;718,80000000;
61,269548;1,7060;-0,8214;-1,5921;-0,0037;-0,0232;-0,2107;37,58648333;36,90425000;2,31161761;718,80000000;
61,369998;0,9215;-0,3718;-0,9812;0,0037;-0,0898;-0,1802;37,58648333;36,90425000;2,31161761;718,80000000;
61,470520;0,3546;-0,1251;-0,4122;-0,0293;-0,0275;-0,1405;37,58648333;36,90425000;2,31161761;718,80000000;
61,570952;0,8528;-1,6595;0,6437;0,0006;0,1252;-0,1900;37,58648333;36,90425000;2,31161761;718,80000000;
61,671771;-0,7617;-0,6680;-0,5699;-0,0440;-0,0880;-0,1698;37,58648333;36,90425000;2,31161761;718,80000000;
61,771840;0,3327;0,3946;-1,1619;0,0073;-0,0819;-0,1625;37,58648333;36,90425000;2,31161761;718,80000000;
61,873461;0,2148;-0,6750;0,3458;-0,0122;-0,0073;-0,1264;37,58648333;36,90425000;2,31161761;719,00000000;
61,973668;1,0099;-1,6290;-0,1530;0,0165;-0,0067;-0,1936;37,58652833;36,90427000;2,79854465;719,00000000;
62,074210;0,7471;-1,1698;-2,0416;-0,0055;-0,0348;-0,1723;37,58652833;36,90427000;2,79854465;719,00000000;
62,174644;0,6398;-0,8072;0,5032;-0,0354;-0,0183;-0,2712;37,58652833;36,90427000;2,79854465;719,00000000;
62,275198;-0,0019;1,0929;0,6395;0,0055;0,0605;-0,3073;37,58652833;36,90427000;2,79854465;719,00000000;
62,375558;0,1029;-0,2529;-0,7928;-0,0556;-0,3005;-0,2352;37,58652833;36,90427000;2,79854465;719,00000000;
62,476600;-0,3200;-1,0006;-1,3633;0,0513;0,0892;-0,2401;37,58652833;36,90427000;2,79854465;719,00000000;
62,576762;-1,2477;0,2195;-0,2374;0,0788;-0,1002;-0,2028;37,58652833;36,90427000;2,79854465;719,00000000;
62,676701;-1,6905;0,3765;-0,9983;-0,0470;0,0983;-0,1472;37,58652833;36,90427000;2,79854465;719,00000000;
62,776969;0,7264;-0,5777;-0,6563;-0,0037;-0,0519;-0,0470;37,58652833;36,90427000;2,79854465;719,00000000;
62,877720;-1,1805;0,2675;0,0066;-0,0171;0,0257;-0,0593;37,58652833;36,90427000;2,79854465;719,00000000;
62,978110;-1,2171;-0,7104;-1,0828;-0,0965;0,0904;-0,0031;37,58657667;36,90429667;3,29988408;719,00000000;
63,078485;-0,4523;-1,5293;-2,6817;-0,0134;0,0428;0,0079;37,58657667;36,90429667;3,29988408;719,00000000;
63,189135;-0,7508;0,0471;-0,8334;-0,0696;-0,0446;-0,0208;37,58657667;36,90429667;3,29988408;719,00000000;
63,279660;0,2554;0,7838;-0,9587;-0,0360;0,2230;-0,0140;37,58657667;36,90429667;3,29988408;719,00000000;
63,379649;1,1278;-0,3344;-0,2839;-0,0024;0,0428;-0,0257;37,58657667;36,90429667;3,29988408;719,00000000;
63,480447;0,4622;0,1646;0,6098;0,0531;-0,1295;-0,0342;37,58657667;36,90429667;3,29988408;719,00000000;
63,581231;0,8030;-0,5277;-1,2353;-0,0440;0,0079;-0,0764;37,58657667;36,90429667;3,29988408;719,00000000;
63,681114;1,2289;-0,6170;-0,8179;-0,0153;0,1778;-0,1350;37,58657667;36,90429667;3,29988408;719,00000000;
63,781485;0,1986;-0,4339;-0,0107;0,0305;-0,0531;-0,1747;37,58657667;36,90429667;3,29988408;719,00000000;
63,881478;3,5740;-0,0906;-0,7226;0,0458;0,0947;-0,2419;37,58657667;36,90429667;3,29988408;718,90000000;
63,982657;1,5848;-0,1973;-0,7217;-0,0354;0,1796;-0,1906;37,58662333;36,90433333;3,83828354;718,90000000;
64,083190;0,2305;-0,7213;-2,3897;-0,0452;-0,0067;-0,2071;37,58662333;36,90433333;3,83828354;718,90000000;
64,183718;1,8602;-1,0177;1,2735;-0,0110;0,0696;-0,1894;37,58662333;36,90433333;3,83828354;718,90000000;
64,283449;-0,8345;-0,4088;-1,1497;0,0305;0,0287;-0,1784;37,58662333;36,90433333;3,83828354;718,90000000;
64,384537;0,5013;0,9107;-0,1893;-0,0116;-0,0067;-0,1338;37,58662333;36,90433333;3,83828354;718,90000000;
64,484930;-0,6403;0,4033;-2,2670;0,0257;-0,3641;-0,2749;37,58662333;36,90433333;3,83828354;718,90000000;
64,585266;2,1915;-0,1478;0,6789;-0,0232;0,1900;-0,0367;37,58662333;36,90433333;3,83828354;718,90000000;
64,685454;-1,8285;1,2442;1,5250;-0,1075;-0,0024;-0,0336;37,58662333;36,90433333;3,83828354;718,90000000;
64,785799;-1,7827;-0,2995;1,0985;-0,0409;0,1093;0,0208;37,58662333;36,90433333;3,83828354;718,90000000;
64,886705;-1,2813;-0,2798;-2,9701;0,0880;0,0959;0,1307;37,58662333;36,90433333;3,83828354;718,60000000;
64,987109;-1,3046;-1,1883;1,0087;0,1484;0,0305;0,0855;37,58666500;36,90437500;4,30410719;718,60000000;
65,087642;-4,1616;0,4440;-1,4001;-0,0116;-0,1778;-0,0073;37,58666500;36,90437500;4,30410719;718,60000000;
65,188029;1,9483;-0,0416;0,9524;0,1032;0,0281;-0,0006;37,58666500;36,90437500;4,30410719;718,60000000;
65,288047;0,0983;1,4604;0,4941;-0,0208;0,1411;-0,1020;37,58666500;36,90437500;4,30410719;718,60000000;
65,388787;0,5327;0,1332;1,2381;0,1063;0,0660;-0,1808;37,58666500;36,90437500;4,30410719;718,60000000;
65,489336;-1,5290;1,2903;-6,3172;-0,1704;-0,2120;-0,1570;37,58666500;36,90437500;4,30410719;718,60000000;
65,589743;-1,1274;-0,4952;1,9841;-0,1106;0,2425;-0,0983;37,58666500;36,90437500;4,30410719;718,60000000;
65,690013;-0,8231;1,6072;-0,4315;-0,0006;-0,0959;-0,1765;37,58666500;36,90437500;4,30410719;718,60000000;
65,790215;-0,0619;-0,9203;1,4999;0,1038;-0,0476;-0,1912;37,58666500;36,90437500;4,30410719;718,60000000;
65,890489;-1,3047;2,0931;-1,3812;0,0874;-0,2230;-0,1509;37,58666500;36,90437500;4,30410719;718,50000000;
65,991408;1,5399;-0,2765;-0,8254;0,0220;0,0874;-0,2138;37,58670167;36,90442667;4,68911934;718,50000000;
66,091817;-0,6366;1,6063;-1,9530;-0,0031;-0,2303;-0,1723;37,58670167;36,90442667;4,68911934;718,50000000;
66,192384;0,7895;-0,5996;0,1097;-0,0538;-0,0244;-0,1497;37,58670167;36,90442667;4,68911934;718,50000000;
66,292599;2,0760;0,6268;0,5759;-0,0128;0,0702;-0,1930;37,58670167;36,90442667;4,68911934;718,50000000;
66,393609;-1,5777;1,3206;-0,9986;0,0360;0,0531;-0,1759;37,58670167;36,90442667;4,68911934;718,50000000;
66,493870;0,2956;0,1229;2,4812;-0,0550;0,0953;-0,1833;37,58670167;36,90442667;4,68911934;718,50000000;
66,594425;-0,1482;0,5411;-0,1231;-0,0428;0,0232;-0,1875;37,58670167;36,90442667;4,68911934;718,50000000;
66,695000;0,6605;1,1089;-0,3880;-0,0232;0,0293;-0,1509;37,58670167;36,90442667;4,68911934;718,50000000;
66,794806;-0,3196;1,2790;1,1529;-0,0208;-0,0024;-0,1796;37,58670167;36,90442667;4,68911934;717,90000000;
66,895594;0,8365;-0,1588;-0,2535;-0,0635;-0,0061;-0,1527;37,58672667;36,90449667;4,97427559;717,90000000;
66,996203;0,2024;2,1690;-0,0857;-0,0220;-0,0605;-0,1570;37,58672667;36,90449667;4,97427559;717,90000000;
67,095883;-0,2221;0,9586;0,2705;-0,0079;0,0696;-0,1588;37,58672667;36,90449667;4,97427559;717,90000000;
67,197070;0,7999;0,3087;0,1669;0,0226;0,0018;-0,1515;37,58672667;36,90449667;4,97427559;717,90000000;
67,297215;-1,2850;-0,0341;-0,3652;0,0415;0,0189;-0,1539;37,58672667;36,90449667;4,97427559;717,90000000;
67,397878;2,2887;0,7872;-1,0291;0,0140;0,0134;-0,1558;37,58672667;36,90449667;4,97427559;717,90000000;
67,498256;-0,3197;0,9437;0,6401;-0,0079;0,0476;-0,1448;37,58672667;36,90449667;4,97427559;717,90000000;
67,599017;-0,4195;0,3945;0,1092;0,0116;-0,0189;-0,1387;37,58672667;36,90449667;4,97427559;717,90000000;
67,699150;0,8880;0,3703;-0,8239;0,0342;-0,0061;-0,1411;37,58672667;36,90449667;4,97427559;717,90000000;
67,799220;-0,6326;0,3121;-0,0245;-0,0250;-0,0012;-0,1063;37,58672667;36,90449667;4,97427559;716,70000000;
67,900037;0,4614;0,0924;-0,4589;0,0018;-0,0476;-0,1277;37,58675667;36,90457000;5,25685787;716,70000000;
68,000363;1,2581;0,1413;0,6294;-0,0550;0,1112;-0,1167;37,58675667;36,90457000;5,25685787;716,70000000;
68,100962;-0,3518;-0,2498;-0,8596;-0,0159;-0,0586;-0,1148;37,58675667;36,90457000;5,25685787;716,70000000;
68,201269;1,3738;-0,0079;1,4562;0,0006;0,1038;-0,1161;37,58675667;36,90457000;5,25685787;716,70000000;
68,301296;0,2420;0,0463;-1,2558;-0,0275;-0,0354;-0,1203;37,58675667;36,90457000;5,25685787;716,70000000;
68,402203;-0,5326;-1,1572;0,4632;-0,0128;0,0073;-0,0391;37,58675667;36,90457000;5,25685787;716,70000000;
68,502548;-0,2724;-0,0279;2,8630;0,0672;0,0910;-0,0837;37,58675667;36,90457000;5,25685787;716,70000000;
68,602933;-1,5696;1,1275;-0,2295;0,1167;-0,1106;-0,0831;37,58675667;36,90457000;5,25685787;716,70000000;
68,704086;7,6551;-1,5404;3,4548;0,1503;0,2132;-0,1894;37,58675667;36,90457000;5,25685787;716,70000000;
68,803838;1,7239;-0,9016;2,7976;-0,1057;-0,1307;-0,0140;37,58675667;36,90457000;5,25685787;716,00000000;
68,904489;1,6050;-1,2001;-1,5551;-0,0281;-0,0751;-0,0299;37,58678167;36,90465333;5,70569563;716,00000000;
69,005165;-0,6669;-0,7515;0,7221;0,0153;0,1851;-0,0202;37,58678167;36,90465333;5,70569563;716,00000000;
69,105447;0,0650;-1,8780;-0,4793;-0,0312;0,0782;-0,0226;37,58678167;36,90465333;5,70569563;716,00000000;
69,205836;-0,5364;0,4939;0,3094;0,0018;-0,0238;-0,0415;37,58678167;36,90465333;5,70569563;716,00000000;
69,316767;-0,7828;-0,2128;-0,1292;0,0489;0,0593;-0,0299;37,58678167;36,90465333;5,70569563;716,00000000;
69,406741;0,0620;-0,0767;0,6570;0,0415;-0,0415;-0,0183;37,58678167;36,90465333;5,70569563;716,00000000;
69,507327;-0,9339;-1,1279;-1,5938;0,0751;-0,0037;-0,0330;37,58678167;36,90465333;5,70569563;716,00000000;
69,607614;-0,3676;-0,3136;-1,0752;-0,0513;-0,0745;-0,0397;37,58678167;36,90465333;5,70569563;716,00000000;
69,708176;-1,1276;-1,0457;-1,4020;-0,0562;0,0159;-0,0379;37,58678167;36,90465333;5,70569563;716,00000000;
69,807838;0,2147;0,3882;-0,3719;0,0269;-0,0929;-0,0177;37,58678167;36,90465333;5,70569563;715,80000000;
69,908954;0,5341;-0,5576;0,5168;0,0226;0,0953;-0,0214;37,58680500;36,90475500;6,23740387;715,80000000;
70,009483;0,5338;-0,6986;0,2886;0,0568;-0,0788;-0,0293;37,58680500;36,90475500;6,23740387;715,80000000;
70,110002;-0,8278;-0,2936;0,3414;0,0568;-0,0360;-0,0159;37,58680500;36,90475500;6,23740387;715,80000000;
70,210556;-0,1238;-0,7541;-1,9080;-0,0501;-0,0287;-0,0330;37,58680500;36,90475500;6,23740387;715,80000000;
70,311042;-1,0754;0,0347;-1,3760;-0,0739;-0,0128;0,0018;37,58680500;36,90475500;6,23740387;715,80000000;
70,411034;-0,4751;-0,6037;1,1449;-0,0220;-0,0348;0,0147;37,58680500;36,90475500;6,23740387;715,80000000;
70,511731;-1,0614;-1,4921;-0,3822;-0,0562;0,1179;0,0012;37,58680500;36,90475500;6,23740387;715,80000000;
70,612035;-0,4673;-2,4754;-0,3903;-0,0037;-0,0354;-0,0031;37,58680500;36,90475500;6,23740387;715,80000000;
70,712538;-0,0490;-1,3404;-1,0021;-0,0367;-0,0244;-0,0263;37,58680500;36,90475500;6,23740387;715,80000000;
70,812265;-0,3376;-1,3526;0,3409;0,0470;0,0202;-0,0128;37,58680500;36,90475500;6,23740387;715,30000000;
70,913203;-0,1804;-1,2076;-1,6967;-0,1038;0,0819;0,0110;37,58683167;36,90487333;9,83428288;715,30000000;
71,013728;0,7438;-1,1670;0,4788;-0,0269;-0,0153;-0,0012;37,58683167;36,90487333;9,83428288;715,30000000;
71,114173;0,2883;-0,3184;-0,0909;0,0739;-0,0593;0,0000;37,58683167;36,90487333;9,83428288;715,30000000;
71,213944;-0,3386;-1,0801;0,2060;0,0458;0,0189;-0,0104;37,58683167;36,90487333;9,83428288;715,30000000;
71,315135;0,4508;-1,3310;-0,8625;-0,0367;0,0189;-0,0073;37,58683167;36,90487333;9,83428288;715,30000000;
71,415161;0,3386;-0,9750;0,4481;0,0764;-0,0177;-0,0024;37,58683167;36,90487333;9,83428288;715,30000000;
71,515803;-0,5070;-0,8810;-0,3915;-0,0855;0,0672;-0,0128;37,58683167;36,90487333;9,83428288;715,30000000;
71,616042;0,1991;-0,8746;0,9228;-0,0525;-0,0043;-0,0128;37,58683167;36,90487333;9,83428288;715,30000000;
71,716743;0,1732;-0,6750;1,9907;0,0617;-0,0556;-0,0391;37,58683167;36,90487333;9,83428288;715,30000000;
71,816539;-0,2672;-0,5840;-0,2281;0,0690;-0,0733;-0,0324;37,58683167;36,90487333;9,83428288;714,50000000;
71,916655;-0,3177;-0,6405;0,0210;0,0464;-0,0128;-0,0134;37,58685833;36,90497833;8,78939629;714,50000000;
72,017217;1,0414;-1,2213;1,0792;0,0110;-0,0373;-0,0055;37,58685833;36,90497833;8,78939629;714,50000000;
72,117619;0,5399;-0,7956;-0,4974;0,0495;-0,0238;-0,0092;37,58685833;36,90497833;8,78939629;714,50000000;
72,219223;0,1196;-0,5719;0,7484;0,0397;0,0079;-0,0049;37,58685833;36,90497833;8,78939629;714,50000000;
72,319612;0,0654;-0,4378;0,6449;-0,0006;-0,0385;0,0122;37,58685833;36,90497833;8,78939629;714,50000000;
72,419977;0,4151;-0,2222;-0,6193;0,0257;-0,0257;-0,0043;37,58685833;36,90497833;8,78939629;714,50000000;
72,520194;-0,5314;-0,3203;0,6123;0,0098;0,0226;0,0171;37,58685833;36,90497833;8,78939629;714,50000000;
72,620991;0,0033;-0,2992;-0,0003;0,0000;0,0641;-0,0116;37,58685833;36,90497833;8,78939629;714,50000000;
72,721518;-0,0433;0,0102;0,8127;0,0183;-0,0287;0,0000;37,58685833;36,90497833;8,78939629;714,50000000;
72,820855;-0,0735;0,0934;0,4159;0,0092;0,0299;-0,0024;37,58685833;36,90497833;8,78939629;714,20000000;
72,922067;-0,4219;-0,4291;-0,2114;-0,0336;-0,0330;0,0049;37,58688000;36,90506000;7,07331276;714,20000000;
73,022549;-0,3318;-0,1704;-0,2911;-0,0147;0,0348;-0,0024;37,58688000;36,90506000;7,07331276;714,20000000;
73,122998;-0,2892;-0,0563;0,2457;0,0220;0,0104;0,0012;37,58688000;36,90506000;7,07331276;714,20000000;
73,223641;-0,0800;-0,0707;0,6769;0,0299;-0,0079;0,0079;37,58688000;36,90506000;7,07331276;714,20000000;
73,323762;-0,2946;0,2023;0,1234;0,0171;0,0061;0,0086;37,58688000;36,90506000;7,07331276;714,20000000;
73,423856;0,0220;0,5362;0,4576;-0,0049;0,0067;0,0073;37,58688000;36,90506000;7,07331276;714,20000000;
73,524604;0,1561;0,3734;0,3982;0,0086;-0,0250;0,0061;37,58688000;36,90506000;7,07331276;714,20000000;
73,625317;-0,0259;0,2419;-0,4441;-0,0092;0,0257;-0,0018;37,58688000;36,90506000;7,07331276;714,20000000;
73,725594;0,1334;0,8648;0,1600;0,0208;-0,0367;-0,0073;37,58688000;36,90506000;7,07331276;714,20000000;
73,825508;-0,0559;0,3981;0,3122;0,0043;0,0202;0,0012;37,58688000;36,90506000;7,07331276;714,10000000;
73,926367;0,3372;0,6372;0,5031;0,0110;0,0208;0,0018;37,58688833;36,90512167;4,86824274;714,10000000;
74,026395;-0,0409;1,0857;0,4834;0,0305;-0,0061;0,0012;37,58688833;36,90512167;4,86824274;714,10000000;
74,126449;-0,4935;0,6766;-0,4506;0,0147;-0,0104;-0,0037;37,58688833;36,90512167;4,86824274;714,10000000;
74,227788;-0,0449;0,4945;-0,0923;0,0250;0,0269;0,0006;37,58688833;36,90512167;4,86824274;714,10000000;
74,328355;0,0935;0,4863;-0,0652;-0,0305;0,0379;0,0073;37,58688833;36,90512167;4,86824274;714,10000000;
74,428844;0,0174;0,3729;0,3493;-0,0067;0,0250;0,0037;37,58688833;36,90512167;4,86824274;714,10000000;
74,529908;0,0387;0,1662;0,1923;-0,0043;-0,0263;-0,0037;37,58688833;36,90512167;4,86824274;714,10000000;
74,630299;0,3815;0,0345;-0,5839;-0,0165;0,0269;0,0000;37,58688833;36,90512167;4,86824274;714,10000000;
74,730646;0,1837;-0,1279;-0,3988;-0,0305;0,0073;0,0067;37,58688833;36,90512167;4,86824274;714,10000000;
74,831214;0,0292;0,2472;0,2908;0,0177;-0,0037;-0,0049;37,58688833;36,90512167;4,86824274;714,10000000;
74,931760;-0,0958;0,2930;0,3782;0,0263;0,0177;-0,0055;37,58689000;36,90515333;2,65956974;714,10000000;
75,032109;0,0848;0,2157;-0,4153;-0,0104;0,0257;0,0043;37,58689000;36,90515333;2,65956974;714,10000000;
75,132390;0,0685;0,0247;-0,0664;-0,0128;0,0012;0,0012;37,58689000;36,90515333;2,65956974;714,10000000;
75,232834;-0,0119;0,0897;-0,2727;-0,0159;0,0238;-0,0067;37,58689000;36,90515333;2,65956974;714,10000000;
75,333678;-0,1289;-0,2845;-0,4668;0,0006;-0,0226;-0,0049;37,58689000;36,90515333;2,65956974;714,10000000;
75,435350;0,1059;0,0855;-0,0052;0,0147;0,0067;-0,0012;37,58689000;36,90515333;2,65956974;714,10000000;
75,534340;0,2235;0,3226;-0,6070;-0,0006;-0,0324;0,0000;37,58689000;36,90515333;2,65956974;714,10000000;
75,635055;-0,0101;-0,3312;0,4394;-0,0171;0,0055;-0,0134;37,58689000;36,90515333;2,65956974;714,10000000;
75,735128;-0,2268;-0,3129;-0,9090;-0,0165;-0,0037;-0,0031;37,58689000;36,90515333;2,65956974;714,10000000;
75,835235;-0,1617;0,2503;-0,7088;0,0470;0,0470;-0,0043;37,58689000;36,90515333;2,65956974;714,40000000;
75,936181;-0,2152;-0,1358;-1,0662;-0,0024;-0,0202;-0,0067;37,58689333;36,90518333;2,31727934;714,40000000;
76,036478;-0,1476;0,1461;0,6789;-0,0531;0,0367;-0,0092;37,58689333;36,90518333;2,31727934;714,40000000;
76,137004;-0,4622;0,5804;0,1451;0,0232;-0,0110;-0,0140;37,58689333;36,90518333;2,31727934;714,40000000;
76,237432;-0,1853;0,3965;-0,3979;0,0446;0,0360;0,0037;37,58689333;36,90518333;2,31727934;714,40000000;
76,337780;0,0708;0,5025;-0,2824;0,0134;0,0208;-0,0086;37,58689333;36,90518333;2,31727934;714,40000000;
76,455152;-0,0294;0,3464;0,2250;0,0104;-0,0342;-0,0061;37,58689333;36,90518333;2,31727934;714,40000000;
76,538659;-0,2520;-0,1156;-0,2229;0,0134;0,0031;0,0006;37,58689333;36,90518333;2,31727934;714,40000000;
76,638803;0,4099;-0,1169;-0,2207;0,0012;0,0189;0,0000;37,58689333;36,90518333;2,31727934;714,40000000;
76,739513;-0,2847;0,2560;-0,1023;0,0287;0,0061;-0,0018;37,58689333;36,90518333;2,31727934;714,40000000;
76,839399;0,4142;0,4401;-0,1386;0,0159;-0,0312;-0,0195;37,58689333;36,90518333;2,31727934;714,10000000;
76,939959;0,1833;0,3723;0,3310;0,0232;0,0043;0,0012;37,58689667;36,90520667;2,17367196;714,10000000;
77,040639;-0,5187;-0,2029;-0,3036;0,0281;-0,0086;0,0055;37,58689667;36,90520667;2,17367196;714,10000000;
77,141407;0,1553;0,4116;-0,3600;0,0379;-0,0244;-0,0061;37,58689667;36,90520667;2,17367196;714,10000000;
77,241620;-0,2268;0,2019;-0,0753;0,0232;-0,0055;0,0049;37,58689667;36,90520667;2,17367196;714,10000000;
77,342114;-0,8292;0,1431;-0,1702;0,0232;-0,0629;0,0043;37,58689667;36,90520667;2,17367196;714,10000000;
77,442348;0,1198;0,5298;-0,1367;0,0000;-0,0544;0,0086;37,58689667;36,90520667;2,17367196;714,10000000;
77,542326;-0,0525;0,5064;0,3937;0,0153;0,0586;0,0202;37,58689667;36,90520667;2,17367196;714,10000000;
77,643433;-1,2888;-0,7334;0,4505;0,0116;-0,0379;0,0122;37,58689667;36,90520667;2,17367196;714,10000000;
77,743680;0,1892;-0,5950;-0,5286;0,0073;0,0409;-0,0153;37,58689667;36,90520667;2,17367196;714,10000000;
77,843848;-1,2679;-0,3917;0,1467;-0,0458;0,0177;-0,0122;37,58689667;36,90520667;2,17367196;713,90000000;
77,944430;-0,5382;-0,3636;-0,9218;-0,0421;0,0122;-0,0031;37,58690167;36,90523333;2,58647919;713,90000000;
78,044042;0,8869;-0,3183;0,1090;-0,0208;0,0031;0,0214;37,58690167;36,90523333;2,58647919;713,90000000;
78,145462;1,3341;-1,2316;-0,1990;-0,0373;-0,0623;0,0299;37,58690167;36,90523333;2,58647919;713,90000000;
78,245693;-0,8208;0,5738;-0,1214;0,0037;0,0464;-0,0067;37,58690167;36,90523333;2,58647919;713,90000000;
78,346327;0,6682;-0,2231;-0,0660;-0,0165;-0,0305;-0,0018;37,58690167;36,90523333;2,58647919;713,90000000;
78,446720;-0,5892;0,8467;-1,6498;-0,0183;-0,0128;-0,0122;37,58690167;36,90523333;2,58647919;713,90000000;
78,546985;0,1400;0,6064;1,4295;-0,0354;0,0330;-0,0165;37,58690167;36,90523333;2,58647919;713,90000000;
78,647726;0,2269;0,1298;0,4373;-0,0244;-0,0250;-0,0140;37,58690167;36,90523333;2,58647919;713,90000000;
78,748181;0,7641;0,1904;-0,0193;-0,0018;0,0189;-0,0024;37,58690167;36,90523333;2,58647919;713,90000000;
78,849314;-0,6485;0,4346;-0,3034;0,0367;-0,0385;-0,0092;37,58690167;36,90523333;2,58647919;713,80000000;
78,949723;0,4781;-0,1067;1,0601;0,0641;0,0672;0,0006;37,58691000;36,90527000;3,38378382;713,80000000;
79,049742;0,5425;-0,6473;-0,1777;0,0458;0,0379;-0,0037;37,58691000;36,90527000;3,38378382;713,80000000;
79,150388;0,4576;0,5049;1,1069;0,0202;0,0409;-0,0037;37,58691000;36,90527000;3,38378382;713,80000000;
79,250913;0,2254;-0,3895;-0,5463;0,0324;-0,0476;0,0006;37,58691000;36,90527000;3,38378382;713,80000000;
79,351422;1,2204;-0,4350;0,1176;-0,0421;0,0391;-0,0012;37,58691000;36,90527000;3,38378382;713,80000000;
79,451876;0,6321;0,3275;0,0076;-0,0171;0,0147;-0,0031;37,58691000;36,90527000;3,38378382;713,80000000;
79,551856;0,3427;0,6361;0,6111;0,0153;-0,0177;-0,0012;37,58691000;36,90527000;3,38378382;713,80000000;
79,652770;-0,0098;0,0843;-0,1008;-0,0226;0,0171;0,0073;37,58691000;36,90527000;3,38378382;713,80000000;
79,753217;0,1254;0,1703;-1,1723;0,0104;-0,0208;-0,0024;37,58691000;36,90527000;3,38378382;713,80000000;
79,853736;-0,4164;-0,4682;-2,8669;-0,0672;0,0238;-0,0024;37,58691000;36,90527000;3,38378382;714,20000000;
79,953851;-1,0015;0,6993;-0,2895;-0,0489;0,1038;0,0171;37,58691833;36,90532333;4,77507782;714,20000000;
80,054260;0,2149;0,1582;-0,0654;0,0874;-0,1106;0,0098;37,58691833;36,90532333;4,77507782;714,20000000;
80,155352;0,5569;-0,2466;0,1148;0,0464;-0,0238;0,0128;37,58691833;36,90532333;4,77507782;714,20000000;
80,255756;1,1399;0,1868;-1,7814;0,1057;0,1393;-0,0446;37,58691833;36,90532333;4,77507782;714,20000000;
80,356262;2,4588;-1,7334;1,1674;-0,0238;-0,3238;-0,0250;37,58691833;36,90532333;4,77507782;714,20000000;
80,456648;-0,7019;-1,0229;-0,5115;-0,0385;0,0812;-0,0312;37,58691833;36,90532333;4,77507782;714,20000000;
80,556514;1,6736;-0,4987;-0,4449;0,0275;-0,0232;0,0171;37,58691833;36,90532333;4,77507782;714,20000000;
80,657444;0,2008;0,8540;1,2649;-0,0067;0,0690;0,0043;37,58691833;36,90532333;4,77507782;714,20000000;
80,759089;-0,8211;0,1459;-0,9653;0,0208;-0,0788;-0,0018;37,58691833;36,90532333;4,77507782;714,20000000;
80,858682;-0,5296;0,3970;-0,2422;-0,0293;0,0104;0,0055;37,58691833;36,90532333;4,77507782;714,40000000;
80,959599;0,9201;-0,1118;-0,4414;-0,0476;0,0428;-0,0122;37,58693333;36,90539500;6,21218252;714,40000000;
81,059505;-0,3615;0,2297;-1,0920;-0,0623;-0,0666;-0,0018;37,58693333;36,90539500;6,21218252;714,40000000;
81,160375;0,1073;-0,4448;0,4460;-0,0183;0,0367;0,0043;37,58693333;36,90539500;6,21218252;714,40000000;
81,260851;0,5287;-0,5088;-1,3861;-0,0415;-0,0147;-0,0122;37,58693333;36,90539500;6,21218252;714,40000000;
81,361324;-0,1954;-0,3493;0,0157;-0,0214;-0,0971;0,0092;37,58693333;36,90539500;6,21218252;714,40000000;
81,461955;0,3593;0,0706;0,9894;0,0275;0,0727;-0,0055;37,58693333;36,90539500;6,21218252;714,40000000;
81,561751;0,5742;0,1796;0,0273;0,0220;-0,0214;-0,0220;37,58693333;36,90539500;6,21218252;714,40000000;
81,662526;0,3373;0,4325;0,6900;0,0440;0,0489;-0,0055;37,58693333;36,90539500;6,21218252;714,40000000;
81,763202;-0,0906;0,7913;0,1914;0,0177;0,0324;0,0012;37,58693333;36,90539500;6,21218252;714,40000000;
81,863443;-0,4284;-0,4948;-0,3512;-0,0208;-0,0098;0,0018;37,58693333;36,90539500;6,21218252;714,30000000;
81,963973;-1,1608;-0,0082;0,9058;0,0183;0,0122;-0,0189;37,58695667;36,90547333;7,09390163;714,30000000;
82,064097;0,3424;0,3400;-0,0832;0,0348;-0,0012;-0,0214;37,58695667;36,90547333;7,09390163;714,30000000;
82,165245;0,9922;-0,0476;-0,6752;0,1051;0,0739;0,0312;37,58695667;36,90547333;7,09390163;714,30000000;
82,265282;-1,0905;0,4424;-0,6692;-0,0275;-0,1497;0,0238;37,58695667;36,90547333;7,09390163;714,30000000;
82,365842;0,0595;0,5917;0,7717;-0,0495;0,1014;-0,0098;37,58695667;36,90547333;7,09390163;714,30000000;
82,466199;-0,3874;1,7087;0,2437;-0,0599;-0,0941;-0,0189;37,58695667;36,90547333;7,09390163;714,30000000;
82,568938;-0,7979;0,6058;4,5570;0,0293;-0,1802;0,0189;37,58695667;36,90547333;7,09390163;714,30000000;
82,666691;1,4654;-1,1280;-1,7807;-0,0092;-0,0849;-0,0434;37,58695667;36,90547333;7,09390163;714,30000000;
82,767629;1,4765;-0,2391;-0,6611;0,0415;-0,1112;0,0153;37,58695667;36,90547333;7,09390163;714,30000000;
82,868076;0,1708;-0,4610;-1,1513;-0,0086;0,0996;0,0202;37,58695667;36,90547333;7,09390163;714,10000000;
82,968907;0,4484;0,6310;-0,4617;0,0012;-0,0379;0,0018;37,58697500;36,90555500;7,39346981;714,10000000;
83,069264;-0,1366;-0,2082;-1,1726;-0,0837;-0,0855;0,0140;37,58697500;36,90555500;7,39346981;714,10000000;
83,169758;-0,3573;0,1513;-0,0954;0,0421;0,0367;0,0324;37,58697500;36,90555500;7,39346981;714,10000000;
83,270240;0,4934;-0,0140;-0,2624;-0,0287;-0,0476;0,0061;37,58697500;36,90555500;7,39346981;714,10000000;
83,370479;0,0815;-0,3626;0,2783;-0,0092;0,0525;0,0110;37,58697500;36,90555500;7,39346981;714,10000000;
83,471225;-2,1904;0,8711;-0,4985;0,0293;-0,0648;0,0495;37,58697500;36,90555500;7,39346981;714,10000000;
83,587912;0,5897;-0,3229;-0,7134;-0,0238;0,0257;0,0299;37,58697500;36,90555500;7,39346981;714,10000000;
83,672206;0,6626;-0,6423;-0,1028;0,0159;0,0049;0,0171;37,58697500;36,90555500;7,39346981;714,10000000;
83,772167;-0,3135;-0,8390;-1,6605;-0,0733;-0,0006;0,0098;37,58697500;36,90555500;7,39346981;714,10000000;
83,872704;-0,8355;0,1073;-0,8665;-0,0421;-0,0183;0,0092;37,58697500;36,90555500;7,39346981;713,60000000;
83,973344;-1,5616;-0,6206;0,4803;0,0214;-0,0116;0,0165;37,58699833;36,90564167;7,74142218;713,60000000;
84,073967;-0,8086;-0,3303;-0,9609;-0,0214;0,0348;-0,0067;37,58699833;36,90564167;7,74142218;713,60000000;
84,173530;-1,0467;0,9625;-0,4054;-0,0305;0,0794;0,0031;37,58699833;36,90564167;7,74142218;713,60000000;
84,274556;0,1626;-0,5351;-0,4298;0,0318;-0,0140;-0,0031;37,58699833;36,90564167;7,74142218;713,60000000;
84,375073;-0,1350;0,6649;0,8224;-0,0336;0,0605;0,0086;37,58699833;36,90564167;7,74142218;713,60000000;
84,475463;-0,4100;0,0114;-1,1232;-0,0409;0,0122;-0,0116;37,58699833;36,90564167;7,74142218;713,60000000;
84,575873;-0,6392;0,4887;0,6763;0,0562;0,0739;0,0116;37,58699833;36,90564167;7,74142218;713,60000000;
84,676229;1,7108;0,5067;-1,2503;0,0507;-0,0568;0,0189;37,58699833;36,90564167;7,74142218;713,60000000;
84,776358;0,6757;-1,0206;-0,6627;0,0049;0,0672;-0,0250;37,58699833;36,90564167;7,74142218;713,60000000;
84,876408;-0,7499;0,2512;0,4091;-0,0501;-0,0250;-0,0354;37,58699833;36,90564167;7,74142218;713,60000000;
84,977914;0,2249;0,4403;0,8613;0,0849;0,0660;-0,0421;37,58702167;36,90573833;8,55416870;713,60000000;
85,078411;1,1350;1,0444;0,5375;0,0324;-0,0470;-0,0006;37,58702167;36,90573833;8,55416870;713,60000000;
85,178282;-0,2624;-0,6162;-0,1780;-0,0128;0,0305;-0,0238;37,58702167;36,90573833;8,55416870;713,60000000;
85,279511;-1,2540;-0,7481;-0,4082;0,0183;-0,0654;-0,0159;37,58702167;36,90573833;8,55416870;713,60000000;
85,379719;1,2695;-0,3025;-0,7392;-0,0299;-0,0385;-0,0391;37,58702167;36,90573833;8,55416870;713,60000000;
85,480062;-0,4841;-1,0265;-0,9958;0,0092;0,0489;-0,0397;37,58702167;36,90573833;8,55416870;713,60000000;
85,580502;0,3793;-0,3666;-0,2149;-0,0214;-0,0629;-0,0476;37,58702167;36,90573833;8,55416870;713,60000000;
85,680476;0,7103;-0,4220;0,4583;0,0330;0,1216;-0,0391;37,58702167;36,90573833;8,55416870;713,60000000;
85,780863;-0,4986;-0,2828;-1,5762;-0,0354;-0,1301;-0,0177;37,58702167;36,90573833;8,55416870;713,60000000;
85,881663;-1,8357;-0,5832;-0,6773;-0,0220;0,1038;0,0226;37,58702167;36,90573833;8,55416870;713,20000000;
85,982314;1,3918;0,6804;0,6117;0,0373;-0,0666;-0,0140;37,58704667;36,90583667;9,06940556;713,20000000;
86,082555;-0,7308;0,3003;0,4328;0,0171;-0,0305;-0,0012;37,58704667;36,90583667;9,06940556;713,20000000;
86,183422;-0,6577;-0,4073;-1,1565;-0,0092;0,0403;0,0037;37,58704667;36,90583667;9,06940556;713,20000000;
86,283600;-0,7539;-0,3877;0,4504;0,0147;-0,0782;0,0116;37,58704667;36,90583667;9,06940556;713,20000000;
86,383692;-1,7077;0,1633;0,2217;0,0660;0,1991;-0,0079;37,58704667;36,90583667;9,06940556;713,20000000;
86,484298;-0,6771;-0,7320;-0,5814;0,0122;-0,0641;-0,0159;37,58704667;36,90583667;9,06940556;713,20000000;
86,584565;-0,4532;-0,2397;-0,7768;-0,0965;0,0440;0,0171;37,58704667;36,90583667;9,06940556;713,20000000;
86,685436;-1,5795;-0,6297;-1,3942;0,0000;0,0916;0,0147;37,58704667;36,90583667;9,06940556;713,20000000;
86,784783;-0,5619;-0,4261;1,1649;0,0525;-0,0739;0,0385;37,58704667;36,90583667;9,06940556;712,70000000;
86,885709;-0,0105;-0,2133;-0,7279;0,0159;-0,0397;-0,0189;37,58707333;36,90594833;9,99384689;712,70000000;
86,986415;-0,8371;-0,1460;0,0604;-0,0299;0,0568;0,0257;37,58707333;36,90594833;9,99384689;712,70000000;
87,086684;-1,5332;0,0552;0,2880;-0,0538;0,0641;0,0031;37,58707333;36,90594833;9,99384689;712,70000000;
87,187552;-1,3691;0,1376;-0,6193;-0,0147;0,0275;0,0171;37,58707333;36,90594833;9,99384689;712,70000000;
87,287816;1,1842;-0,3241;0,7268;0,0140;-0,0257;0,0434;37,58707333;36,90594833;9,99384689;712,70000000;
87,388529;0,9547;-0,6176;-0,4940;0,0104;-0,0189;0,0147;37,58707333;36,90594833;9,99384689;712,70000000;
87,489370;-0,7288;0,2100;0,4609;0,0165;0,0446;0,0318;37,58707333;36,90594833;9,99384689;712,70000000;
87,589477;1,3813;-0,2960;0,2721;0,0269;-0,0354;0,0067;37,58707333;36,90594833;9,99384689;712,70000000;
87,689641;0,1829;0,0667;1,3371;0,0318;0,0397;0,0195;37,58707333;36,90594833;9,99384689;712,70000000;
87,789784;-1,8379;0,3594;0,8553;0,0470;0,0648;0,0586;37,58707333;36,90594833;9,99384689;711,80000000;
87,890782;-2,0522;-0,8339;-1,7838;0,0250;-0,0116;0,0880;37,58710333;36,90606333;10,47150898;711,80000000;
87,991335;-1,8823;-0,4042;-0,1353;-0,0635;-0,0629;0,1869;37,58710333;36,90606333;10,47150898;711,80000000;
88,091924;-1,9586;0,5254;-1,1504;-0,0415;0,1631;0,2376;37,58710333;36,90606333;10,47150898;711,80000000;
88,191857;-0,1520;-2,2535;0,7209;0,0348;0,1399;0,1356;37,58710333;36,90606333;10,47150898;711,80000000;
88,292436;-2,1280;-3,4461;0,8933;-0,0935;0,1289;0,0965;37,58710333;36,90606333;10,47150898;711,80000000;
88,392841;-0,7300;-1,1944;-4,3060;-0,0202;-0,1252;0,0165;37,58710333;36,90606333;10,47150898;711,80000000;
88,493427;-2,8009;-1,2366;2,7907;-0,0776;0,2248;0,0501;37,58710333;36,90606333;10,47150898;711,80000000;
88,594375;-1,1419;0,6801;-5,6191;-0,1894;-0,0739;-0,0214;37,58710333;36,90606333;10,47150898;711,80000000;
88,694140;-0,5107;3,1939;-5,5507;0,4826;-0,0782;-0,2877;37,58710333;36,90606333;10,47150898;711,80000000;
88,794350;0,2719;-1,2396;5,8617;0,1326;-0,1148;-0,1423;37,58710333;36,90606333;10,47150898;710,80000000;
88,895224;4,5977;-1,0398;0,3667;-0,1991;-0,0727;0,0819;37,58713833;36,90617667;10,81894684;710,80000000;
88,996169;-1,2627;-1,6678;1,9444;-0,1478;0,0727;-0,0544;37,58713833;36,90617667;10,81894684;710,80000000;
89,096121;-0,6412;-0,8882;0,0669;-0,1210;0,1436;-0,0550;37,58713833;36,90617667;10,81894684;710,80000000;
89,196942;2,7049;-1,6115;0,1877;0,0892;-0,1539;-0,0250;37,58713833;36,90617667;10,81894684;710,80000000;
89,296788;0,1374;-1,7877;0,2633;0,0220;0,0043;-0,0611;37,58713833;36,90617667;10,81894684;710,80000000;
89,397666;1,4229;-0,6760;-0,5523;-0,0886;0,0348;-0,0550;37,58713833;36,90617667;10,81894684;710,80000000;
89,497941;-1,1026;-0,4351;0,6059;0,0880;0,0397;-0,0965;37,58713833;36,90617667;10,81894684;710,80000000;
89,598234;-0,1107;-0,5737;0,5799;0,0525;0,0220;-0,0397;37,58713833;36,90617667;10,81894684;710,80000000;
89,698108;0,4080;-1,0700;1,5687;0,0373;0,0360;-0,0550;37,58713833;36,90617667;10,81894684;710,80000000;
89,798446;2,2420;-1,0698;-0,3024;0,0324;-0,1252;-0,0012;37,58713833;36,90617667;10,81894684;709,10000000;
89,899306;0,8612;-2,1724;-0,6051;0,0018;0,0012;0,0049;37,58717500;36,90628333;11,00939369;709,10000000;
89,999684;1,3951;0,2942;0,2610;0,0220;0,0800;-0,0043;37,58717500;36,90628333;11,00939369;709,10000000;
90,100532;-0,5075;-0,1893;-0,4775;-0,0183;0,0605;0,0299;37,58717500;36,90628333;11,00939369;709,10000000;
90,201094;0,4649;-0,2877;0,2944;0,0061;0,0819;0,0379;37,58717500;36,90628333;11,00939369;709,10000000;
90,301562;-1,4407;0,3943;-0,4210;-0,0086;-0,0929;0,0446;37,58717500;36,90628333;11,00939369;709,10000000;
90,402010;0,4779;0,5576;-0,5580;-0,0214;-0,0312;0,0452;37,58717500;36,90628333;11,00939369;709,10000000;
90,502362;-0,0419;-0,7939;-0,4530;0,0006;0,0037;0,0489;37,58717500;36,90628333;11,00939369;709,10000000;
90,602770;-0,0759;0,0381;0,3757;0,0006;0,0263;0,0568;37,58717500;36,90628333;11,00939369;709,10000000;
90,715834;0,7197;0,0874;0,3845;0,0226;-0,0183;0,0385;37,58717500;36,90628333;11,00939369;709,10000000;
90,803012;-0,8677;0,2421;0,5579;-0,0122;0,0831;0,0092;37,58717500;36,90628333;11,00939369;707,60000000;
90,903945;-0,4029;-0,2219;-0,9954;-0,0018;-0,0409;0,0208;37,58720667;36,90639500;10,91571426;707,60000000;
91,004190;1,5690;-0,3835;1,6427;-0,0415;0,0318;-0,0140;37,58720667;36,90639500;10,91571426;707,60000000;
91,104750;-1,3917;-0,0587;-1,2581;0,0367;-0,0458;0,0110;37,58720667;36,90639500;10,91571426;707,60000000;
91,204338;0,9909;-0,8418;-0,2664;-0,0049;0,0257;0,0159;37,58720667;36,90639500;10,91571426;707,60000000;
91,305321;-1,7824;-1,0428;-0,6306;-0,0220;0,0696;-0,0134;37,58720667;36,90639500;10,91571426;707,60000000;
91,405725;0,5982;-0,4206;-2,0766;0,0574;-0,1002;0,0342;37,58720667;36,90639500;10,91571426;707,60000000;
91,506212;-0,3654;0,0962;0,9772;-0,1063;0,1063;0,0134;37,58720667;36,90639500;10,91571426;707,60000000;
91,606698;0,6517;0,5295;-0,1852;0,0171;0,0000;0,0122;37,58720667;36,90639500;10,91571426;707,60000000;
91,707309;2,5870;-0,4709;1,9815;-0,0128;0,0012;0,0049;37,58720667;36,90639500;10,91571426;707,60000000;
91,806648;-0,3196;0,2896;0,0919;-0,0092;-0,0727;0,0379;37,58720667;36,90639500;10,91571426;706,20000000;
91,907861;-0,8320;0,4021;-0,6292;-0,0281;0,1038;0,0250;37,58724167;36,90651167;11,43043613;706,20000000;
92,008339;-0,0847;0,1430;0,2614;-0,0305;-0,0666;-0,0305;37,58724167;36,90651167;11,43043613;706,20000000;
92,109495;-0,0776;-0,2986;-1,2650;0,0055;0,0580;0,0079;37,58724167;36,90651167;11,43043613;706,20000000;
92,209808;-1,4035;1,0244;0,2982;-0,0195;0,0177;0,0312;37,58724167;36,90651167;11,43043613;706,20000000;
92,310186;0,2890;-0,4147;-1,4465;0,0055;-0,0745;-0,0165;37,58724167;36,90651167;11,43043613;706,20000000;
92,410452;0,5348;0,2666;-0,5958;0,0226;0,0159;-0,0067;37,58724167;36,90651167;11,43043613;706,20000000;
92,511133;-0,8207;-0,4121;-0,3366;-0,0330;-0,0782;0,0055;37,58724167;36,90651167;11,43043613;706,20000000;
92,611604;1,9824;0,4180;-1,4339;0,0140;0,0312;-0,0312;37,58724167;36,90651167;11,43043613;706,20000000;
92,711741;0,4068;0,8972;0,3199;0,0171;0,0202;0,0116;37,58724167;36,90651167;11,43043613;706,20000000;
92,811445;1,1081;-0,5503;0,1488;0,0305;-0,0293;-0,0183;37,58724167;36,90651167;11,43043613;705,20000000;
92,912530;-0,1878;0,3931;1,4398;0,0648;-0,0171;0,0049;37,58728667;36,90663500;11,93383503;705,20000000;
93,013073;-0,4797;-0,5804;-0,3165;-0,0226;-0,0660;0,0006;37,58728667;36,90663500;11,93383503;705,20000000;
93,114168;-2,5410;0,5569;0,6767;0,0550;-0,0012;0,0318;37,58728667;36,90663500;11,93383503;705,20000000;
93,214175;1,1052;-0,8168;0,2136;0,0073;-0,0134;0,0037;37,58728667;36,90663500;11,93383503;705,20000000;
93,314652;1,3161;-0,1942;-0,3680;-0,0470;-0,0202;-0,0330;37,58728667;36,90663500;11,93383503;705,20000000;
93,415281;1,3607;-0,7756;1,3047;0,0257;-0,0556;0,0134;37,58728667;36,90663500;11,93383503;705,20000000;
93,515455;0,4786;-0,8641;-0,8610;-0,0043;0,0605;0,0092;37,58728667;36,90663500;11,93383503;705,20000000;
93,615984;0,7280;-0,7769;-1,1526;-0,0299;-0,1136;0,0208;37,58728667;36,90663500;11,93383503;705,20000000;
93,715941;-0,4602;0,0602;-1,0642;-0,0715;0,0660;0,0110;37,58728667;36,90663500;11,93383503;705,20000000;
93,816055;0,4935;-0,1866;-1,5682;0,1136;-0,0819;0,0208;37,58728667;36,90663500;11,93383503;704,50000000;
93,916894;0,3121;-0,4591;-0,2611;0,0061;-0,0171;0,0195;37,58733167;36,90677000;12,58598804;704,50000000;
94,017221;-0,6428;0,0119;0,1612;0,0513;0,0385;0,0024;37,58733167;36,90677000;12,58598804;704,50000000;
94,117766;1,1778;-0,3251;1,1872;0,0434;-0,0611;0,0086;37,58733167;36,90677000;12,58598804;704,50000000;
94,218114;0,3671;-0,1173;0,1735;-0,0421;0,0495;0,0147;37,58733167;36,90677000;12,58598804;704,50000000;
94,318790;-1,1853;0,1673;-0,4455;0,0220;-0,0702;0,0202;37,58733167;36,90677000;12,58598804;704,50000000;
94,418553;-0,2962;-0,3067;1,0968;0,0061;-0,0635;0,0165;37,58733167;36,90677000;12,58598804;704,50000000;
94,519586;1,1853;-0,5203;0,6482;-0,0232;0,1075;0,0043;37,58733167;36,90677000;12,58598804;704,50000000;
94,619988;0,2534;0,4134;-0,8680;-0,0428;0,0189;0,0000;37,58733167;36,90677000;12,58598804;704,50000000;
94,720250;-1,1647;-1,3974;-0,2591;0,0018;-0,0910;0,0305;37,58733167;36,90677000;12,58598804;704,50000000;
94,820181;-0,2453;-0,5865;0,5036;0,0568;0,0049;0,0214;37,58733167;36,90677000;12,58598804;703,80000000;
94,921009;-0,8100;0,0106;-0,0093;0,0128;0,0617;0,0232;37,58737667;36,90690333;12,86599636;703,80000000;
95,021753;-0,7232;-0,2991;-0,1756;0,0367;-0,0073;0,0287;37,58737667;36,90690333;12,86599636;703,80000000;
95,122156;-0,8459;-0,0787;-0,7018;-0,0421;-0,1283;0,0140;37,58737667;36,90690333;12,86599636;703,80000000;
95,222737;0,9580;-1,0344;-0,4845;-0,0024;0,0189;0,0000;37,58737667;36,90690333;12,86599636;703,80000000;
95,323353;-0,2078;-0,8551;-0,3079;-0,0006;0,0519;0,0073;37,58737667;36,90690333;12,86599636;703,80000000;
95,424422;0,3374;-0,3387;-1,6713;-0,0336;-0,0788;0,0055;37,58737667;36,90690333;12,86599636;703,80000000;
95,524963;-0,1433;-0,1825;-0,2581;0,0489;0,0189;0,0354;37,58737667;36,90690333;12,86599636;703,80000000;
95,625516;0,0174;-0,3857;-0,1751;-0,0415;0,0513;0,0122;37,58737667;36,90690333;12,86599636;703,80000000;
95,725534;-0,1999;-0,2803;-1,6115;-0,0403;-0,0391;0,0159;37,58737667;36,90690333;12,86599636;703,80000000;
95,825234;-0,5188;-0,3757;0,3765;0,0165;0,0079;0,0140;37,58737667;36,90690333;12,86599636;703,10000000;
95,925793;0,7804;-0,0585;0,3686;0,0678;0,0269;0,0287;37,58742167;36,90704167;12,98901558;703,10000000;
96,026933;-1,1043;-0,9750;-0,5170;-0,0177;0,0825;0,0330;37,58742167;36,90704167;12,98901558;703,10000000;
96,127193;-0,1742;0,9519;0,2294;0,0617;-0,1014;0,0049;37,58742167;36,90704167;12,98901558;703,10000000;
96,227772;-2,8128;-0,1441;-1,5694;0,0354;0,2211;0,0086;37,58742167;36,90704167;12,98901558;703,10000000;
96,327372;-0,6044;0,2641;-1,4747;-0,0189;-0,1552;0,0269;37,58742167;36,90704167;12,98901558;703,10000000;
96,428467;-0,1523;-0,3543;0,9025;0,0305;0,0360;0,0275;37,58742167;36,90704167;12,98901558;703,10000000;
96,529215;1,0363;-0,4584;0,1084;0,0006;-0,1118;-0,0098;37,58742167;36,90704167;12,98901558;703,10000000;
96,629872;0,8474;-0,7243;2,9593;0,1784;0,0409;0,0018;37,58742167;36,90704167;12,98901558;703,10000000;
96,729292;-0,9151;-0,2654;-0,9083;0,0024;0,0171;0,0171;37,58742167;36,90704167;12,98901558;703,10000000;
96,830241;0,7549;0,1507;1,6881;0,0177;-0,0800;0,0049;37,58742167;36,90704167;12,98901558;702,70000000;
96,930949;-1,5811;-0,5692;1,0298;0,0855;0,0550;0,0415;37,58746667;36,90717667;12,64312172;702,70000000;
97,031211;-0,0977;-0,4543;0,1929;0,0354;0,0721;0,0195;37,58746667;36,90717667;12,64312172;702,70000000;
97,131898;1,2843;-0,1519;-0,7889;0,0079;0,0006;0,0134;37,58746667;36,90717667;12,64312172;702,70000000;
97,231774;-0,4734;0,4916;-1,5407;0,0159;0,0293;0,0263;37,58746667;36,90717667;12,64312172;702,70000000;
97,332666;0,0066;0,1998;1,8811;0,0073;0,0764;-0,0018;37,58746667;36,90717667;12,64312172;702,70000000;
97,432830;0,7918;-0,6952;1,2518;0,0189;0,0165;-0,0079;37,58746667;36,90717667;12,64312172;702,70000000;
97,533493;-0,2784;0,1150;-0,3736;-0,0287;0,0244;0,0165;37,58746667;36,90717667;12,64312172;702,70000000;
97,633297;-0,3288;0,3390;-0,7815;-0,0220;0,1093;-0,0092;37,58746667;36,90717667;12,64312172;702,70000000;
97,734055;0,9870;0,2695;1,7171;0,0043;-0,0232;0,0000;37,58746667;36,90717667;12,64312172;702,70000000;
97,833939;-0,4817;0,1569;-0,4579;-0,0452;-0,0605;-0,0263;37,58746667;36,90717667;12,64312172;702,20000000;
97,934388;0,0575;-0,4374;0,0501;0,0232;0,0000;0,0073;37,58751000;36,90730500;12,17163658;702,20000000;
98,035482;0,0058;0,1469;0,6285;0,0415;0,0440;-0,0061;37,58751000;36,90730500;12,17163658;702,20000000;
98,135833;-0,3084;-0,0015;-0,6190;-0,0611;-0,0232;-0,0067;37,58751000;36,90730500;12,17163658;702,20000000;
98,235725;-0,2184;0,2367;0,1506;0,0342;0,0660;0,0006;37,58751000;36,90730500;12,17163658;702,20000000;
98,336155;0,7861;-1,0954;-3,4132;-0,0287;-0,1087;-0,0177;37,58751000;36,90730500;12,17163658;702,20000000;
98,436465;0,4316;-0,2423;0,0814;-0,0208;0,0092;-0,0079;37,58751000;36,90730500;12,17163658;702,20000000;
98,537942;-2,0692;0,0407;-0,8321;-0,0483;0,0727;-0,0293;37,58751000;36,90730500;12,17163658;702,20000000;
98,638388;0,2100;-0,8667;0,7369;0,0434;0,0721;0,0147;37,58751000;36,90730500;12,17163658;702,20000000;
98,739100;-1,5440;0,0016;-0,7255;-0,0153;-0,0507;0,0220;37,58751000;36,90730500;12,17163658;702,20000000;
98,843122;-0,6993;0,5958;1,6790;0,0751;-0,0244;0,0079;37,58751000;36,90730500;12,17163658;701,70000000;
98,939564;0,3405;0,5168;-0,0954;0,0220;-0,0318;-0,0195;37,58755333;36,90742833;11,71353340;701,70000000;
99,040270;-2,4943;0,5894;0,0578;0,0165;-0,1069;0,0342;37,58755333;36,90742833;11,71353340;701,70000000;
99,140503;2,0844;-0,2192;-0,3643;-0,0348;-0,0147;-0,0281;37,58755333;36,90742833;11,71353340;701,70000000;
99,241938;-0,1901;-0,1178;0,1605;0,0586;-0,1087;0,0055;37,58755333;36,90742833;11,71353340;701,70000000;
99,341844;0,9551;0,6934;0,3007;0,0617;-0,0354;-0,0189;37,58755333;36,90742833;11,71353340;701,70000000;
99,442210;1,5502;0,4505;1,3298;0,1277;-0,0568;-0,0434;37,58755333;36,90742833;11,71353340;701,70000000;
99,541412;-1,6335;0,3918;0,7658;0,0037;-0,0134;0,0373;37,58755333;36,90742833;11,71353340;701,70000000;
99,649919;1,0109;0,0779;-1,0043;-0,0886;-0,0788;-0,0073;37,58755333;36,90742833;11,71353340;701,70000000;
99,751248;-0,6675;0,0470;1,0092;-0,0275;0,0171;0,0079;37,58755333;36,90742833;11,71353340;701,70000000;
99,850120;0,4230;-0,2025;0,1463;0,0568;0,0031;-0,0140;37,58755333;36,90742833;11,71353340;701,40000000;
99,955761;0,7276;0,8773;0,9651;0,0843;-0,0403;0,0122;37,58759500;36,90755000;11,34241867;701,40000000;
100,049800;0,1834;-0,4347;-1,6433;-0,1222;0,1026;-0,0238;37,58759500;36,90755000;11,34241867;701,40000000;
100,149970;-1,0397;-0,8343;0,6645;0,0910;0,0098;0,0037;37,58759500;36,90755000;11,34241867;701,40000000;
100,243333;1,0672;0,9077;-1,9180;0,0800;-0,0580;0,0049;37,58759500;36,90755000;11,34241867;701,40000000;
100,343596;-0,5739;-0,1044;0,3040;-0,0024;-0,0232;-0,0165;37,58759500;36,90755000;11,34241867;701,40000000;
100,443763;-1,8091;0,3346;-0,9172;0,0312;0,0880;-0,0189;37,58759500;36,90755000;11,34241867;701,40000000;
100,544010;-1,6101;-1,0323;-0,1639;0,1026;0,0275;0,0122;37,58759500;36,90755000;11,34241867;701,40000000;
100,644557;1,6082;0,1720;-1,4209;0,0446;-0,0751;0,0024;37,58759500;36,90755000;11,34241867;701,40000000;
100,745472;0,5000;0,6703;1,7217;-0,0195;-0,1142;0,0483;37,58759500;36,90755000;11,34241867;701,40000000;
100,845498;-0,7538;-1,1295;-0,2876;-0,0171;0,1613;0,0464;37,58759500;36,90755000;11,34241867;701,20000000;
100,946118;-0,4942;0,3068;-1,0657;-0,0507;-0,1875;0,0049;37,58763833;36,90767000;11,07991028;701,20000000;
101,046612;-0,0450;-0,3151;-2,5009;-0,0385;0,1234;0,0421;37,58763833;36,90767000;11,07991028;701,20000000;
101,147408;-1,0796;0,4060;-0,7491;0,0220;-0,2505;0,0116;37,58763833;36,90767000;11,07991028;701,20000000;
101,247548;-1,1672;0,4173;-0,0128;0,0177;0,2279;0,0483;37,58763833;36,90767000;11,07991028;701,20000000;
101,348196;-0,1490;2,0203;2,4526;-0,0483;-0,2028;0,0220;37,58763833;36,90767000;11,07991028;701,20000000;
101,448069;0,8630;-1,1008;-1,4401;-0,0556;0,0140;0,0104;37,58763833;36,90767000;11,07991028;701,20000000;
101,548726;0,3311;-0,0890;0,0997;0,0825;-0,0318;0,0153;37,58763833;36,90767000;11,07991028;701,20000000;
101,648180;-0,8302;-1,3823;-3,0232;-0,0336;-0,0666;0,0183;37,58763833;36,90767000;11,07991028;701,20000000;
101,749325;-1,5143;-2,2838;1,0792;-0,0470;0,0324;0,0403;37,58763833;36,90767000;11,07991028;701,20000000;
101,849619;1,9891;1,3334;0,9724;0,0421;0,1539;-0,0244;37,58763833;36,90767000;11,07991028;700,80000000;
101,950545;-0,7445;1,1829;1,9782;0,0757;0,0586;0,0177;37,58768333;36,90778500;11,07991028;700,80000000;
102,051618;1,2937;0,1688;-2,1280;0,0018;-0,2474;0,0140;37,58768333;36,90778500;11,07991028;700,80000000;
102,151901;-0,3556;0,5640;1,7560;0,0299;0,0922;0,0220;37,58768333;36,90778500;11,07991028;700,80000000;
102,252211;-0,1507;0,8659;-0,3038;-0,0049;-0,0446;0,0202;37,58768333;36,90778500;11,07991028;700,80000000;
102,352604;-1,5033;0,5828;-2,3704;-0,1118;-0,0831;0,0391;37,58768333;36,90778500;11,07991028;700,80000000;
102,453232;-1,2230;1,9946;-1,3799;0,0373;-0,0037;0,0257;37,58768333;36,90778500;11,07991028;700,80000000;
102,553542;-2,9727;1,0522;-0,2169;-0,0544;-0,1155;0,0574;37,58768333;36,90778500;11,07991028;700,80000000;
102,654084;1,5539;0,6454;0,5995;-0,0617;-0,0140;0,0238;37,58768333;36,90778500;11,07991028;700,80000000;
102,754651;-0,1609;0,0438;0,1878;0,0183;-0,0702;0,0104;37,58768333;36,90778500;11,07991028;700,80000000;
102,854658;0,2457;-0,2344;0,8318;-0,0232;-0,0281;0,0214;37,58768333;36,90778500;11,07991028;700,20000000;
102,955717;0,9891;-0,6097;-2,0118;0,0367;-0,0599;0,0635;37,58772500;36,90790000;10,89821339;700,20000000;
103,055417;-1,4957;0,6171;0,1845;-0,0037;0,0171;0,0299;37,58772500;36,90790000;10,89821339;700,20000000;
103,156139;0,7343;-0,0342;-1,5934;0,0476;0,0593;0,0244;37,58772500;36,90790000;10,89821339;700,20000000;
103,256763;-0,9278;0,1391;-0,9773;0,0043;0,0202;-0,0177;37,58772500;36,90790000;10,89821339;700,20000000;
103,357141;-0,2224;0,1539;0,6752;-0,1167;0,0354;-0,0483;37,58772500;36,90790000;10,89821339;700,20000000;
103,457582;0,1152;-0,2184;-0,5373;-0,0483;0,0183;-0,0281;37,58772500;36,90790000;10,89821339;700,20000000;
103,557838;0,3590;0,1301;0,0370;-0,0159;-0,0043;-0,1032;37,58772500;36,90790000;10,89821339;700,20000000;
103,658649;1,1475;-0,5921;0,2978;0,0599;0,0330;-0,0654;37,58772500;36,90790000;10,89821339;700,20000000;
103,759212;-1,4794;-0,0076;0,4208;0,0275;0,0916;-0,1093;37,58772500;36,90790000;10,89821339;700,20000000;
103,858569;0,4674;0,8825;-0,8238;-0,0360;0,1326;-0,1081;37,58772500;36,90790000;10,89821339;700,10000000;
103,958933;1,3362;0,6513;-0,3768;0,0605;-0,0837;-0,0586;37,58777000;36,90801167;10,64033794;700,10000000;
104,060451;0,7742;0,9649;0,9621;0,0562;-0,0525;-0,0354;37,58777000;36,90801167;10,64033794;700,10000000;
104,160923;0,2157;-0,6656;0,0536;0,0086;-0,0391;-0,0128;37,58777000;36,90801167;10,64033794;700,10000000;
104,260440;0,2087;1,3481;-0,1053;0,0293;-0,0348;-0,0049;37,58777000;36,90801167;10,64033794;700,10000000;
104,361866;-0,1318;0,4508;0,0600;0,0086;0,0061;0,0110;37,58777000;36,90801167;10,64033794;700,10000000;
104,462231;-0,6261;0,2748;-1,1878;0,0159;-0,0195;0,0098;37,58777000;36,90801167;10,64033794;700,10000000;
104,562327;-0,5306;-0,3288;0,0815;0,0287;0,0037;-0,0037;37,58777000;36,90801167;10,64033794;700,10000000;
104,663296;-0,3721;-0,1037;-1,0951;-0,0666;-0,0110;-0,0385;37,58777000;36,90801167;10,64033794;700,10000000;
104,763803;1,1373;-0,2851;-0,0814;-0,0037;-0,0678;-0,0128;37,58777000;36,90801167;10,64033794;700,10000000;
104,863865;0,7196;-0,2629;0,1690;-0,0556;-0,0305;-0,0110;37,58777000;36,90801167;10,64033794;699,50000000;
104,963966;1,0729;0,1755;0,9849;-0,0324;0,0446;-0,0122;37,58781500;36,90811500;10,47768593;699,50000000;
105,064975;0,0901;0,2852;-0,5584;0,0134;-0,0171;0,0012;37,58781500;36,90811500;10,47768593;699,50000000;
105,165209;-0,0602;0,0207;0,3002;0,0495;-0,0434;0,0012;37,58781500;36,90811500;10,47768593;699,50000000;
105,265815;-1,0304;-0,1129;-1,6382;0,0446;0,0367;-0,0012;37,58781500;36,90811500;10,47768593;699,50000000;
105,367010;-1,7562;0,3814;-0,7674;-0,0092;0,1344;-0,0116;37,58781500;36,90811500;10,47768593;699,50000000;
105,467051;-0,5277;0,7707;-1,4882;0,0513;-0,0110;-0,0104;37,58781500;36,90811500;10,47768593;699,50000000;
105,567101;0,8344;0,0355;1,9094;0,1405;-0,0250;-0,0140;37,58781500;36,90811500;10,47768593;699,50000000;
105,667402;1,1291;0,1032;-2,3099;-0,0189;-0,0202;0,0183;37,58781500;36,90811500;10,47768593;699,50000000;
105,771038;-3,1551;-0,4351;2,1917;0,0483;-0,2505;0,0202;37,58781500;36,90811500;10,47768593;699,50000000;
105,868617;-0,0567;-0,2847;-2,7344;-0,0965;-0,0391;-0,0318;37,58781500;36,90811500;10,47768593;698,70000000;
105,969007;1,2778;1,1125;1,0190;0,1515;-0,0055;-0,0293;37,58785667;36,90822333;10,62232208;698,70000000;
106,069894;0,3892;0,1875;0,8674;0,0122;-0,1381;-0,0458;37,58785667;36,90822333;10,62232208;698,70000000;
106,170020;-1,2032;0,2041;-0,9562;-0,0409;0,0226;-0,0086;37,58785667;36,90822333;10,62232208;698,70000000;
106,270281;-0,4789;-0,7675;-0,6510;0,0324;-0,0819;-0,0238;37,58785667;36,90822333;10,62232208;698,70000000;
106,370365;-0,6549;0,2561;0,1864;0,0232;0,0244;-0,0061;37,58785667;36,90822333;10,62232208;698,70000000;
106,471349;1,8130;-0,8351;1,1153;0,0452;-0,0220;-0,0586;37,58785667;36,90822333;10,62232208;698,70000000;
106,571644;-1,3398;-1,7674;-0,3332;-0,1002;0,2853;0,0617;37,58785667;36,90822333;10,62232208;698,70000000;
106,672245;0,0460;0,5499;3,9126;0,0153;-0,3158;-0,0403;37,58785667;36,90822333;10,62232208;698,70000000;
106,772210;4,0862;2,3673;1,2095;0,2132;0,1668;-0,0031;37,58785667;36,90822333;10,62232208;698,70000000;
106,872815;0,8539;-0,7210;7,8869;0,1600;-0,4191;-0,0599;37,58785667;36,90822333;10,62232208;697,90000000;
106,972966;1,3646;-0,1252;-0,8324;-0,0342;0,2272;0,0446;37,58789333;36,90833333;10,59813023;697,90000000;
107,073890;-1,4520;0,7255;1,5973;0,0580;-0,1979;-0,0116;37,58789333;36,90833333;10,59813023;697,90000000;
107,173977;0,9232;0,0005;0,5710;-0,0403;0,0641;-0,0232;37,58789333;36,90833333;10,59813023;697,90000000;
107,275030;0,6436;0,4410;-0,0913;0,0507;-0,0764;-0,0177;37,58789333;36,90833333;10,59813023;697,90000000;
107,375383;-0,5945;-0,1863;-0,9296;0,0757;0,0098;-0,0415;37,58789333;36,90833333;10,59813023;697,90000000;
107,475903;0,3898;-0,1292;-0,2111;-0,0079;0,0000;-0,0385;37,58789333;36,90833333;10,59813023;697,90000000;
107,576240;1,0396;-0,1653;0,4120;0,0171;-0,0324;-0,0434;37,58789333;36,90833333;10,59813023;697,90000000;
107,676421;-1,5395;-0,1333;-1,2389;0,0367;-0,0128;-0,0324;37,58789333;36,90833333;10,59813023;697,90000000;
107,776832;0,0658;-0,0358;1,0114;0,0244;0,0531;-0,0415;37,58789333;36,90833333;10,59813023;697,90000000;
107,877489;-0,0600;-1,2636;-0,3892;-0,0122;-0,0079;-0,0605;37,58789333;36,90833333;10,59813023;697,40000000;
107,978030;0,2679;0,4128;-0,1417;0,0544;-0,0116;-0,0165;37,58792667;36,90844667;10,60533619;697,40000000;
108,078184;0,3621;0,7776;0,7329;-0,0043;0,0476;-0,0275;37,58792667;36,90844667;10,60533619;697,40000000;
108,178976;-0,0229;-0,4294;0,0370;0,0159;-0,0171;-0,0318;37,58792667;36,90844667;10,60533619;697,40000000;
108,278957;-1,1708;0,3159;-0,0071;0,0348;0,0134;-0,0110;37,58792667;36,90844667;10,60533619;697,40000000;
108,379791;-0,0113;-0,2609;-0,3260;-0,0415;0,0177;-0,0373;37,58792667;36,90844667;10,60533619;697,40000000;
108,480353;-0,0271;0,0544;0,2537;0,0690;-0,0220;-0,0238;37,58792667;36,90844667;10,60533619;697,40000000;
108,580716;-0,8721;-0,0450;-0,2807;-0,0360;-0,0214;-0,0171;37,58792667;36,90844667;10,60533619;697,40000000;
108,680785;0,7733;0,3467;-0,2129;0,0134;0,0293;-0,0513;37,58792667;36,90844667;10,60533619;697,40000000;
108,781080;-0,0627;-0,1680;1,1365;0,0641;0,0281;-0,0367;37,58792667;36,90844667;10,60533619;697,40000000;
108,882032;-0,5481;0,9976;-0,0074;-0,0116;0,0086;-0,0373;37,58792667;36,90844667;10,60533619;697,00000000;
108,991042;-1,1513;-0,3010;-0,9572;0,0709;-0,0941;-0,0275;37,58796000;36,90855500;10,21826553;697,00000000;
109,082287;-0,4115;-0,8633;-0,2448;0,0354;0,0287;-0,0379;37,58796000;36,90855500;10,21826553;697,00000000;
109,183264;-0,6220;0,1169;0,3820;0,0275;-0,0226;-0,0238;37,58796000;36,90855500;10,21826553;697,00000000;
109,283569;0,6444;0,1439;0,6078;0,0812;0,0250;-0,0483;37,58796000;36,90855500;10,21826553;697,00000000;
109,384422;-0,2804;-0,0915;-1,1383;0,0666;-0,0177;-0,0599;37,58796000;36,90855500;10,21826553;697,00000000;
109,484497;0,5466;0,1444;-0,0477;-0,0079;-0,0232;-0,0568;37,58796000;36,90855500;10,21826553;697,00000000;
109,585040;2,8590;-1,0866;-1,4217;-0,2089;0,0275;-0,0031;37,58796000;36,90855500;10,21826553;697,00000000;
109,685133;1,5217;-0,5238;-0,3850;0,0177;0,0397;-0,0244;37,58796000;36,90855500;10,21826553;697,00000000;
109,785521;-0,0279;-1,1585;-1,0616;-0,0531;-0,0360;-0,0489;37,58796000;36,90855500;10,21826553;697,00000000;
109,885521;-2,0028;2,2659;0,0126;0,3928;-0,0409;-0,0641;37,58796000;36,90855500;10,21826553;696,70000000;
109,986200;-2,7491;2,8924;1,2978;0,0318;0,0825;-0,1063;37,58799000;36,90866667;10,21363258;696,70000000;
110,086280;-1,7047;1,7026;-2,0320;-0,1417;-0,2101;-0,0855;37,58799000;36,90866667;10,21363258;696,70000000;
110,187276;0,5765;-0,2770;0,5043;0,0354;-0,0147;-0,1576;37,58799000;36,90866667;10,21363258;696,70000000;
110,287781;1,0600;-0,7269;1,0161;0,0556;0,0159;-0,0574;37,58799000;36,90866667;10,21363258;696,70000000;
110,388171;-0,3572;1,3352;0,5030;-0,0147;0,1252;-0,0299;37,58799000;36,90866667;10,21363258;696,70000000;
110,488461;0,3749;0,1786;-1,6542;-0,0104;0,1014;0,0318;37,58799000;36,90866667;10,21363258;696,70000000;
110,588765;-1,7819;-0,2314;-0,0975;-0,0318;0,0031;0,0342;37,58799000;36,90866667;10,21363258;696,70000000;
110,689261;-0,9457;0,0029;0,1260;-0,0165;-0,0623;-0,0159;37,58799000;36,90866667;10,21363258;696,70000000;
110,792315;0,5596;-0,3138;0,6857;-0,0073;0,0012;-0,0562;37,58799000;36,90866667;10,21363258;696,20000000;
110,890229;-0,8648;-0,6763;0,0714;-0,0232;-0,0061;-0,0287;37,58801500;36,90877167;10,09576130;696,20000000;
110,990449;1,3461;0,2272;0,8274;0,0635;-0,0568;-0,0745;37,58801500;36,90877167;10,09576130;696,20000000;
111,090540;-0,2595;-1,0821;-0,3271;0,0177;0,0024;-0,0666;37,58801500;36,90877167;10,09576130;696,20000000;
111,192194;0,5562;0,1831;0,6183;-0,0140;-0,0403;-0,0556;37,58801500;36,90877167;10,09576130;696,20000000;
111,292597;-0,9631;0,2510;-0,2230;0,0299;-0,0330;-0,0385;37,58801500;36,90877167;10,09576130;696,20000000;
111,392633;-0,1151;0,2594;-0,6713;-0,0489;0,0648;-0,0519;37,58801500;36,90877167;10,09576130;696,20000000;
111,493069;1,5911;0,6781;0,3245;0,0348;0,0403;-0,0672;37,58801500;36,90877167;10,09576130;696,20000000;
111,593517;-1,2115;0,6762;1,2708;0,0544;-0,0623;-0,0006;37,58801500;36,90877167;10,09576130;696,20000000;
111,693940;-0,5969;0,6059;-0,6240;-0,0275;0,0232;0,0140;37,58801500;36,90877167;10,09576130;696,20000000;
111,794787;-0,0378;0,2688;1,3527;0,0079;0,0293;0,0140;37,58801500;36,90877167;10,09576130;695,50000000;
111,894425;-0,0772;-0,6621;0,4255;-0,0171;0,0385;0,0153;37,58803833;36,90888000;10,07208443;695,50000000;
111,995074;-0,2898;-0,2018;-0,3594;0,0128;-0,0489;0,0501;37,58803833;36,90888000;10,07208443;695,50000000;
112,095462;-1,1907;0,3356;-0,7205;0,0837;0,0098;0,0886;37,58803833;36,90888000;10,07208443;695,50000000;
112,195882;0,0026;-0,6226;-0,8282;0,0495;-0,0757;0,1008;37,58803833;36,90888000;10,07208443;695,50000000;
112,296010;-2,4436;0,6012;-0,0110;0,0373;0,0489;0,1069;37,58803833;36,90888000;10,07208443;695,50000000;
112,395970;-0,8669;0,0676;-0,3418;0,0000;0,1167;0,1234;37,58803833;36,90888000;10,07208443;695,50000000;
112,497235;-0,5278;0,6260;1,2401;0,0568;-0,0049;0,0880;37,58803833;36,90888000;10,07208443;695,50000000;
112,597564;-0,8361;0,9967;0,9748;-0,0049;0,0061;0,1026;37,58803833;36,90888000;10,07208443;695,50000000;
112,697907;0,5627;0,2077;1,7305;-0,0098;0,0037;0,0867;37,58803833;36,90888000;10,07208443;695,50000000;
112,797590;-0,2609;-0,9068;1,1447;-0,0281;0,0403;0,0941;37,58803833;36,90888000;10,07208443;695,10000000;
112,898692;1,2552;-0,9408;0,9786;0,0586;0,0660;0,0580;37,58806000;36,90899333;10,36444664;695,10000000;
112,999820;0,0289;1,4752;0,7428;0,0373;0,0269;0,0525;37,58806000;36,90899333;10,36444664;695,10000000;
113,099883;-0,0074;0,4302;0,3287;0,0409;-0,0012;0,0531;37,58806000;36,90899333;10,36444664;695,10000000;
113,199852;-1,2841;-0,8368;-1,4590;-0,0947;-0,0874;0,0605;37,58806000;36,90899333;10,36444664;695,10000000;
113,300706;1,4567;0,1781;0,0355;-0,0043;-0,1417;0,0415;37,58806000;36,90899333;10,36444664;695,10000000;
113,401240;1,0802;-1,3366;-1,2247;-0,0336;0,0018;-0,0049;37,58806000;36,90899333;10,36444664;695,10000000;
113,501665;1,3091;-0,5162;0,0542;-0,0159;0,0330;-0,0159;37,58806000;36,90899333;10,36444664;695,10000000;
113,602106;0,0258;-0,3877;-0,8040;0,0519;-0,1533;-0,0092;37,58806000;36,90899333;10,36444664;695,10000000;
113,702378;-0,7095;0,0863;-0,0319;-0,0446;0,0354;-0,0079;37,58806000;36,90899333;10,36444664;695,10000000;
113,802361;-0,0576;1,2320;-1,2956;-0,1313;-0,0403;-0,0403;37,58806000;36,90899333;10,36444664;694,70000000;
113,903333;2,7253;0,0823;-0,5562;-0,0055;-0,0800;-0,0476;37,58808667;36,90910167;10,20694160;694,70000000;
114,003653;0,1344;-0,0586;-0,0929;0,0373;-0,0043;-0,0342;37,58808667;36,90910167;10,20694160;694,70000000;
114,103693;-0,5878;0,6577;-0,0035;0,0586;0,0043;-0,0641;37,58808667;36,90910167;10,20694160;694,70000000;
114,204517;-1,1389;0,3883;-0,5644;0,0287;0,0159;-0,0550;37,58808667;36,90910167;10,20694160;694,70000000;
114,304785;0,3347;0,4660;1,6784;0,0360;-0,0428;-0,0153;37,58808667;36,90910167;10,20694160;694,70000000;
114,405447;-0,6555;-0,0434;-1,5008;0,0843;0,0092;-0,0024;37,58808667;36,90910167;10,20694160;694,70000000;
114,505742;-1,1928;-0,2901;-1,3798;-0,0189;0,0458;-0,0104;37,58808667;36,90910167;10,20694160;694,70000000;
114,606235;0,3517;0,1113;0,8707;-0,0183;-0,2010;0,0134;37,58808667;36,90910167;10,20694160;694,70000000;
114,706229;0,2396;0,1094;-1,0452;-0,0360;0,1130;0,0140;37,58808667;36,90910167;10,20694160;694,70000000;
114,806305;-0,8483;0,0761;0,0839;-0,0489;0,0104;0,0079;37,58808667;36,90910167;10,20694160;694,50000000;
114,907457;-0,0953;-0,1559;-1,3368;-0,0593;-0,0660;0,0202;37,58811333;36,90920500;9,71229362;694,50000000;
115,007786;0,6305;0,4804;-0,0975;0,0171;0,0128;0,0421;37,58811333;36,90920500;9,71229362;694,50000000;
115,108605;-0,7782;0,3364;-0,8833;0,0134;0,0391;0,0257;37,58811333;36,90920500;9,71229362;694,50000000;
115,208865;-1,4447;0,3165;-0,3754;-0,0305;-0,0134;0,0324;37,58811333;36,90920500;9,71229362;694,50000000;
115,309038;1,9034;-0,2495;0,3267;0,0623;-0,0831;0,0147;37,58811333;36,90920500;9,71229362;694,50000000;
