Tarih,Saat,Gecen_Sure(ms),ax,ay,az,wx,wy,wz,Latitude,Longitude,Speed(m/s),Altitude(m)
6/5/2026,15:33:22,17169,16976,-556,820,472,700,-92,37.600.481,36.843.739,0.19,680.70
6/5/2026,15:33:22,17252,16956,-496,776,496,696,-127,37.600.481,36.843.739,0.19,680.70
6/5/2026,15:33:22,17312,16940,-524,676,459,707,-114,37.600.481,36.843.739,0.19,680.70
6/5/2026,15:33:22,17378,17040,-552,828,499,708,-83,37.600.481,36.843.739,0.19,680.70
6/5/2026,15:33:22,17442,17016,-524,732,502,731,-103,37.600.481,36.843.739,0.19,680.70
6/5/2026,15:33:22,17502,16972,-492,872,471,728,-95,37.600.481,36.843.739,0.19,680.70
6/5/2026,15:33:22,17562,17036,-568,720,474,715,-117,37.600.481,36.843.739,0.19,680.70
6/5/2026,15:33:22,17622,17008,-520,768,452,698,-79,37.600.481,36.843.739,0.19,680.70
6/5/2026,15:33:22,17682,17028,-532,912,453,735,-59,37.600.481,36.843.739,0.19,680.70
6/5/2026,15:33:22,17748,17032,-472,820,484,687,-54,37.600.481,36.843.739,0.19,680.70
6/5/2026,15:33:22,17812,17032,-504,784,519,672,-112,37.600.481,36.843.739,0.19,680.70
6/5/2026,15:33:22,17872,16988,-548,784,486,691,-85,37.600.481,36.843.739,0.19,680.70
6/5/2026,15:33:22,17932,16988,-484,800,482,745,-90,37.600.481,36.843.739,0.19,680.70
6/5/2026,15:33:22,17992,16948,-572,852,459,699,-75,37.600.481,36.843.739,0.19,680.70
6/5/2026,15:33:23,18052,17016,-524,724,463,722,-95,37.600.488,36.843.732,0.12,680.70
6/5/2026,15:33:23,18118,16936,-568,724,492,667,-107,37.600.488,36.843.732,0.12,680.70
6/5/2026,15:33:23,18182,17092,-512,756,465,688,-85,37.600.488,36.843.732,0.12,684.30
6/5/2026,15:33:23,18242,17084,-500,724,485,694,-99,37.600.488,36.843.732,0.12,684.30
6/5/2026,15:33:23,18316,17028,-488,852,498,691,-99,37.600.488,36.843.732,0.12,684.30
6/5/2026,15:33:23,18376,16992,-516,756,438,701,-133,37.600.488,36.843.732,0.12,684.30
6/5/2026,15:33:23,18436,16976,-584,900,484,696,-146,37.600.488,36.843.732,0.12,684.30
6/5/2026,15:33:23,18517,16940,-516,788,456,696,-93,37.600.488,36.843.732,0.12,684.30
6/5/2026,15:33:23,18581,16980,-524,700,437,708,-110,37.600.488,36.843.732,0.12,684.30
6/5/2026,15:33:23,18641,16992,-496,840,466,703,-79,37.600.488,36.843.732,0.12,684.30
6/5/2026,15:33:23,18701,16956,-448,840,504,719,-62,37.600.488,36.843.732,0.12,684.30
6/5/2026,15:33:23,18761,16928,-520,656,489,696,-94,37.600.488,36.843.732,0.12,684.30
6/5/2026,15:33:23,18821,17012,-528,796,482,734,-92,37.600.488,36.843.732,0.12,684.30
6/5/2026,15:33:23,18885,17040,-520,800,495,679,-81,37.600.488,36.843.732,0.12,684.30
6/5/2026,15:33:23,18945,16908,-548,740,456,713,-60,37.600.488,36.843.732,0.12,684.30
6/5/2026,15:33:23,19005,16972,-596,872,461,717,-87,37.600.488,36.843.732,0.12,684.30
6/5/2026,15:33:24,19065,17076,-484,816,454,679,-106,37.600.486,36.843.736,0.22,684.30
6/5/2026,15:33:24,19125,17008,-556,800,494,684,-96,37.600.486,36.843.736,0.22,684.30
6/5/2026,15:33:24,19185,16912,-576,808,472,730,-127,37.600.486,36.843.736,0.22,679.50
6/5/2026,15:33:24,19251,17000,-428,876,472,715,-75,37.600.486,36.843.736,0.22,679.50
6/5/2026,15:33:24,19315,17000,-576,860,478,674,-113,37.600.486,36.843.736,0.22,679.50
6/5/2026,15:33:24,19375,16728,-548,844,457,743,-99,37.600.486,36.843.736,0.22,679.50
6/5/2026,15:33:24,19435,16944,-476,652,473,696,-112,37.600.486,36.843.736,0.22,679.50
6/5/2026,15:33:24,19495,16732,-620,984,506,714,-136,37.600.486,36.843.736,0.22,679.50
6/5/2026,15:33:24,19555,17120,-496,748,503,655,-95,37.600.486,36.843.736,0.22,679.50
6/5/2026,15:33:24,19621,17040,-460,800,475,720,-103,37.600.486,36.843.736,0.22,679.50
6/5/2026,15:33:24,19685,16936,-504,828,478,692,-131,37.600.486,36.843.736,0.22,679.50
6/5/2026,15:33:24,19745,16996,-512,768,474,713,-122,37.600.486,36.843.736,0.22,679.50
6/5/2026,15:33:24,19822,16996,-560,800,482,710,-78,37.600.486,36.843.736,0.22,679.50
6/5/2026,15:33:24,19882,17048,-544,704,491,749,-113,37.600.486,36.843.736,0.22,679.50
6/5/2026,15:33:24,19965,17000,-524,780,487,713,-68,37.600.486,36.843.736,0.22,679.50
6/5/2026,15:33:25,20031,17168,-512,840,461,740,-70,37.600.484,36.843.736,0.17,679.50
6/5/2026,15:33:25,20095,17052,-508,800,491,664,-71,37.600.484,36.843.736,0.17,679.50
6/5/2026,15:33:25,20155,17016,-628,780,473,722,-69,37.600.484,36.843.736,0.17,677.10
6/5/2026,15:33:25,20215,16996,-540,692,489,679,-104,37.600.484,36.843.736,0.17,677.10
6/5/2026,15:33:25,20275,16996,-584,720,506,716,-116,37.600.484,36.843.736,0.17,677.10
6/5/2026,15:33:25,20335,17028,-488,884,479,717,-82,37.600.484,36.843.736,0.17,677.10
6/5/2026,15:33:25,20401,17032,-508,664,472,696,-76,37.600.484,36.843.736,0.17,677.10
6/5/2026,15:33:25,20465,16948,-524,776,452,727,-67,37.600.484,36.843.736,0.17,677.10
6/5/2026,15:33:25,20525,17028,-516,696,466,692,-86,37.600.484,36.843.736,0.17,677.10
6/5/2026,15:33:25,20585,16908,-460,820,493,684,-118,37.600.484,36.843.736,0.17,677.10
6/5/2026,15:33:25,20645,17004,-528,796,505,720,-95,37.600.484,36.843.736,0.17,677.10
6/5/2026,15:33:25,20705,17132,-704,632,490,533,-69,37.600.484,36.843.736,0.17,677.10
6/5/2026,15:33:25,20771,16964,-560,788,473,707,-108,37.600.484,36.843.736,0.17,677.10
6/5/2026,15:33:25,20835,16872,-432,612,463,692,-115,37.600.484,36.843.736,0.17,677.10
6/5/2026,15:33:25,20895,16928,-492,728,476,701,-140,37.600.484,36.843.736,0.17,677.10
6/5/2026,15:33:25,20955,16972,-492,800,538,726,-99,37.600.484,36.843.736,0.17,677.10
6/5/2026,15:33:25,21015,17024,-468,828,488,735,-59,37.600.484,36.843.736,0.17,677.10
6/5/2026,15:33:26,21075,16996,-572,892,452,719,-67,37.600.485,36.843.730,0.16,677.10
6/5/2026,15:33:26,21154,16960,-564,696,490,691,-106,37.600.485,36.843.730,0.16,676.90
6/5/2026,15:33:26,21218,17044,-548,868,531,731,-87,37.600.485,36.843.730,0.16,676.90
6/5/2026,15:33:26,21278,17028,-560,940,473,715,-119,37.600.485,36.843.730,0.16,676.90
6/5/2026,15:33:26,21338,16900,-520,1016,495,688,-76,37.600.485,36.843.730,0.16,676.90
6/5/2026,15:33:26,21413,16940,-540,860,469,661,-107,37.600.485,36.843.730,0.16,676.90
6/5/2026,15:33:26,21473,17064,-568,800,482,688,-88,37.600.485,36.843.730,0.16,676.90
6/5/2026,15:33:26,21539,17096,-432,664,494,729,-46,37.600.485,36.843.730,0.16,676.90
6/5/2026,15:33:26,21603,17048,-564,1004,504,718,-36,37.600.485,36.843.730,0.16,676.90
6/5/2026,15:33:26,21663,16852,-552,876,493,671,-98,37.600.485,36.843.730,0.16,676.90
6/5/2026,15:33:26,21723,17052,-508,704,483,675,-98,37.600.485,36.843.730,0.16,676.90
6/5/2026,15:33:26,21783,17104,-524,552,473,686,-86,37.600.485,36.843.730,0.16,676.90
6/5/2026,15:33:26,21843,16816,-468,676,442,720,-89,37.600.485,36.843.730,0.16,676.90
6/5/2026,15:33:26,21903,16884,-560,888,477,724,-62,37.600.485,36.843.730,0.16,676.90
6/5/2026,15:33:26,21969,17120,-668,1064,443,704,-121,37.600.485,36.843.730,0.16,676.90
6/5/2026,15:33:26,22033,17020,-556,744,477,711,-114,37.600.485,36.843.730,0.16,676.90
6/5/2026,15:33:27,22093,17024,-416,768,516,717,-67,37.600.482,36.843.731,0.10,676.90
6/5/2026,15:33:27,22153,16960,-264,884,456,710,-98,37.600.482,36.843.731,0.10,673.20
6/5/2026,15:33:27,22213,16856,-428,864,439,705,-62,37.600.482,36.843.731,0.10,673.20
6/5/2026,15:33:27,22273,17024,-652,816,476,708,-79,37.600.482,36.843.731,0.10,673.20
6/5/2026,15:33:27,22339,17096,-792,692,512,665,-44,37.600.482,36.843.731,0.10,673.20
6/5/2026,15:33:27,22403,17020,-640,844,461,683,-113,37.600.482,36.843.731,0.10,673.20
6/5/2026,15:33:27,22463,16900,-484,776,456,682,-124,37.600.482,36.843.731,0.10,673.20
6/5/2026,15:33:27,22523,16888,-320,936,479,732,-109,37.600.482,36.843.731,0.10,673.20
6/5/2026,15:33:27,22583,16964,-440,840,502,674,-72,37.600.482,36.843.731,0.10,673.20
6/5/2026,15:33:27,22666,17116,-592,716,476,678,-61,37.600.482,36.843.731,0.10,673.20
6/5/2026,15:33:27,22732,17052,-688,772,492,702,-107,37.600.482,36.843.731,0.10,673.20
6/5/2026,15:33:27,22796,16800,-520,820,466,704,-130,37.600.482,36.843.731,0.10,673.20
6/5/2026,15:33:27,22856,17016,-424,868,497,706,-123,37.600.482,36.843.731,0.10,673.20
6/5/2026,15:33:27,22916,17000,-444,836,476,688,-94,37.600.482,36.843.731,0.10,673.20
6/5/2026,15:33:27,22976,16988,-564,768,455,707,-83,37.600.482,36.843.731,0.10,673.20
6/5/2026,15:33:28,23036,16924,-660,684,492,719,-91,37.600.483,36.843.726,0.16,673.20
6/5/2026,15:33:28,23102,16936,-684,896,472,700,-120,37.600.483,36.843.726,0.16,673.20
6/5/2026,15:33:28,23166,17056,-404,996,491,686,-101,37.600.483,36.843.726,0.16,672.80
6/5/2026,15:33:28,23243,16916,-320,772,450,696,-67,37.600.483,36.843.726,0.16,672.80
6/5/2026,15:33:28,23303,16880,-424,720,454,741,-47,37.600.483,36.843.726,0.16,672.80
6/5/2026,15:33:28,23363,17036,-692,864,461,715,-62,37.600.483,36.843.726,0.16,672.80
6/5/2026,15:33:28,23423,17224,-728,888,485,711,-84,37.600.483,36.843.726,0.16,672.80
6/5/2026,15:33:28,23489,16932,-560,880,496,683,-105,37.600.483,36.843.726,0.16,672.80
6/5/2026,15:33:28,23553,16880,-440,800,457,705,-122,37.600.483,36.843.726,0.16,672.80
6/5/2026,15:33:28,23613,17036,-332,812,460,700,-140,37.600.483,36.843.726,0.16,672.80
6/5/2026,15:33:28,23673,17028,-496,780,500,660,-73,37.600.483,36.843.726,0.16,672.80
6/5/2026,15:33:28,23733,17008,-628,724,482,744,-71,37.600.483,36.843.726,0.16,672.80
6/5/2026,15:33:28,23793,16896,-648,712,494,711,-123,37.600.483,36.843.726,0.16,672.80
6/5/2026,15:33:28,23872,16988,-600,984,480,672,-101,37.600.483,36.843.726,0.16,672.80
6/5/2026,15:33:28,23936,16872,-444,760,455,720,-116,37.600.483,36.843.726,0.16,672.80
6/5/2026,15:33:28,23996,16968,-440,716,511,686,-108,37.600.483,36.843.726,0.16,672.80
6/5/2026,15:33:29,24056,17024,-428,832,478,714,-67,37.600.489,36.843.722,0.11,672.80
6/5/2026,15:33:29,24116,16956,-596,780,500,665,-112,37.600.489,36.843.722,0.11,672.80
6/5/2026,15:33:29,24176,16960,-588,812,488,708,-101,37.600.489,36.843.722,0.11,675.00
6/5/2026,15:33:29,24311,16984,-572,820,470,718,-115,37.600.489,36.843.722,0.11,675.00
6/5/2026,15:33:29,24376,16924,-404,820,498,710,-65,37.600.489,36.843.722,0.11,675.00
6/5/2026,15:33:29,24436,17004,-472,792,499,722,-86,37.600.489,36.843.722,0.11,675.00
6/5/2026,15:33:29,24496,16976,-484,752,475,680,-118,37.600.489,36.843.722,0.11,675.00
6/5/2026,15:33:29,24556,17072,-612,760,476,715,-48,37.600.489,36.843.722,0.11,675.00
6/5/2026,15:33:29,24616,17072,-624,792,467,701,-79,37.600.489,36.843.722,0.11,675.00
6/5/2026,15:33:29,24681,16880,-580,772,466,716,-134,37.600.489,36.843.722,0.11,675.00
6/5/2026,15:33:29,24745,16968,-400,832,495,693,-72,37.600.489,36.843.722,0.11,675.00
6/5/2026,15:33:29,24805,16976,-384,788,482,688,-93,37.600.489,36.843.722,0.11,675.00
6/5/2026,15:33:29,24865,17008,-436,700,483,728,-73,37.600.489,36.843.722,0.11,675.00
6/5/2026,15:33:29,24925,16936,-608,732,459,722,-95,37.600.489,36.843.722,0.11,675.00
6/5/2026,15:33:29,24985,16944,-632,880,415,696,-108,37.600.489,36.843.722,0.11,675.00
6/5/2026,15:33:30,25060,16888,-608,764,453,732,-92,37.600.491,36.843.720,0.16,675.00
6/5/2026,15:33:30,25120,16984,-512,760,430,709,-142,37.600.491,36.843.720,0.16,675.00
6/5/2026,15:33:30,25180,16920,-408,824,458,696,-115,37.600.491,36.843.720,0.16,675.80
6/5/2026,15:33:30,25240,17084,-468,776,473,720,-93,37.600.491,36.843.720,0.16,675.80
6/5/2026,15:33:30,25323,17064,-616,824,476,676,-73,37.600.491,36.843.720,0.16,675.80
6/5/2026,15:33:30,25383,16960,-632,700,439,717,-67,37.600.491,36.843.720,0.16,675.80
6/5/2026,15:33:30,25449,16900,-500,828,454,719,-91,37.600.491,36.843.720,0.16,675.80
6/5/2026,15:33:30,25513,17052,-420,796,475,752,-127,37.600.491,36.843.720,0.16,675.80
6/5/2026,15:33:30,25573,16976,-504,720,458,700,-100,37.600.491,36.843.720,0.16,675.80
6/5/2026,15:33:30,25633,17040,-480,828,522,716,-59,37.600.491,36.843.720,0.16,675.80
6/5/2026,15:33:30,25693,17004,-512,1072,457,688,-43,37.600.491,36.843.720,0.16,675.80
6/5/2026,15:33:30,25753,17008,-544,896,452,666,-51,37.600.491,36.843.720,0.16,675.80
6/5/2026,15:33:30,25819,16896,-544,588,434,716,-80,37.600.491,36.843.720,0.16,675.80
6/5/2026,15:33:30,25883,17036,-592,608,448,733,-111,37.600.491,36.843.720,0.16,675.80
6/5/2026,15:33:30,25943,17032,-548,860,442,753,-110,37.600.491,36.843.720,0.16,675.80
6/5/2026,15:33:30,26003,17000,-496,1084,473,679,-78,37.600.491,36.843.720,0.16,675.80
6/5/2026,15:33:31,26063,16800,-464,948,521,730,-65,37.600.489,36.843.724,0.20,675.80
6/5/2026,15:33:31,26123,16936,-480,784,444,719,-115,37.600.489,36.843.724,0.20,675.80
6/5/2026,15:33:31,26189,17140,-648,744,469,707,-72,37.600.489,36.843.724,0.20,672.30
6/5/2026,15:33:31,26253,17176,-604,868,485,714,-98,37.600.489,36.843.724,0.20,672.30
6/5/2026,15:33:31,26313,16920,-512,948,499,712,-107,37.600.489,36.843.724,0.20,672.30
6/5/2026,15:33:31,26373,16912,-456,888,485,708,-72,37.600.489,36.843.724,0.20,672.30
6/5/2026,15:33:31,26433,16872,-508,768,498,705,-126,37.600.489,36.843.724,0.20,672.30
6/5/2026,15:33:31,26493,17060,-476,924,475,716,-75,37.600.489,36.843.724,0.20,672.30
6/5/2026,15:33:31,26559,17032,-652,736,491,747,-64,37.600.489,36.843.724,0.20,672.30
6/5/2026,15:33:31,26636,16992,-556,804,460,740,-47,37.600.489,36.843.724,0.20,672.30
6/5/2026,15:33:31,26713,16928,-540,784,463,723,-110,37.600.489,36.843.724,0.20,672.30
6/5/2026,15:33:31,26773,17012,-548,872,495,704,-67,37.600.489,36.843.724,0.20,672.30
6/5/2026,15:33:31,26833,17060,-504,612,470,710,-47,37.600.489,36.843.724,0.20,672.30
6/5/2026,15:33:31,26893,16920,-572,924,447,639,-75,37.600.489,36.843.724,0.20,672.30
6/5/2026,15:33:31,26959,16996,-496,908,468,741,-139,37.600.489,36.843.724,0.20,672.30
6/5/2026,15:33:31,27023,16936,-504,996,484,677,-75,37.600.489,36.843.724,0.20,672.30
6/5/2026,15:33:32,27083,17192,-516,1008,482,620,-48,37.600.489,36.843.722,0.27,672.30
6/5/2026,15:33:32,27158,17128,-500,848,452,687,-72,37.600.489,36.843.722,0.27,670.50
6/5/2026,15:33:32,27218,16988,-608,744,448,735,-113,37.600.489,36.843.722,0.27,670.50
6/5/2026,15:33:32,27278,16944,-604,828,463,688,-96,37.600.489,36.843.722,0.27,670.50
6/5/2026,15:33:32,27344,17024,-404,836,465,684,-86,37.600.489,36.843.722,0.27,670.50
6/5/2026,15:33:32,27408,17072,-416,668,480,721,-53,37.600.489,36.843.722,0.27,670.50
6/5/2026,15:33:32,27468,16956,-436,728,451,686,-63,37.600.489,36.843.722,0.27,670.50
6/5/2026,15:33:32,27528,17000,-592,816,453,701,-52,37.600.489,36.843.722,0.27,670.50
6/5/2026,15:33:32,27588,17032,-632,988,475,675,-126,37.600.489,36.843.722,0.27,670.50
6/5/2026,15:33:32,27648,16904,-652,864,501,731,-113,37.600.489,36.843.722,0.27,670.50
6/5/2026,15:33:32,27714,16984,-480,828,491,705,-111,37.600.489,36.843.722,0.27,670.50
6/5/2026,15:33:32,27778,17056,-512,832,474,687,-70,37.600.489,36.843.722,0.27,670.50
6/5/2026,15:33:32,27838,17080,-504,788,472,716,-120,37.600.489,36.843.722,0.27,670.50
6/5/2026,15:33:32,27898,17044,-460,728,485,695,-77,37.600.489,36.843.722,0.27,670.50
6/5/2026,15:33:32,27958,16908,-484,880,481,685,-68,37.600.489,36.843.722,0.27,670.50
6/5/2026,15:33:33,28041,16916,-652,852,473,711,-71,37.600.490,36.843.721,0.20,670.50
6/5/2026,15:33:33,28101,17072,-672,848,455,732,-83,37.600.490,36.843.721,0.20,670.50
6/5/2026,15:33:33,28167,17004,-560,712,514,702,-90,37.600.490,36.843.721,0.20,670.00
6/5/2026,15:33:33,28231,17000,-452,832,478,723,-96,37.600.490,36.843.721,0.20,670.00
6/5/2026,15:33:33,28291,16884,-356,824,457,700,-124,37.600.490,36.843.721,0.20,670.00
6/5/2026,15:33:33,28351,16936,-396,840,502,691,-54,37.600.490,36.843.721,0.20,670.00
6/5/2026,15:33:33,28411,17056,-552,792,492,707,-89,37.600.490,36.843.721,0.20,670.00
6/5/2026,15:33:33,28471,17008,-668,640,476,676,-101,37.600.490,36.843.721,0.20,670.00
6/5/2026,15:33:33,28537,17020,-528,932,480,721,-92,37.600.490,36.843.721,0.20,670.00
6/5/2026,15:33:33,28601,16880,-452,872,465,694,-112,37.600.490,36.843.721,0.20,670.00
6/5/2026,15:33:33,28661,17020,-372,712,480,696,-87,37.600.490,36.843.721,0.20,670.00
6/5/2026,15:33:33,28721,17044,-444,644,456,692,-100,37.600.490,36.843.721,0.20,670.00
6/5/2026,15:33:33,28781,17068,-444,872,474,665,-115,37.600.490,36.843.721,0.20,670.00
6/5/2026,15:33:33,28841,16892,-584,668,459,746,-113,37.600.490,36.843.721,0.20,670.00
6/5/2026,15:33:33,28907,16872,-736,940,492,677,-95,37.600.490,36.843.721,0.20,670.00
6/5/2026,15:33:33,28971,17028,-448,692,483,685,-115,37.600.490,36.843.721,0.20,670.00
6/5/2026,15:33:33,29031,16832,-300,628,466,705,-97,37.600.490,36.843.721,0.20,670.00
6/5/2026,15:33:34,29091,17520,-844,1048,468,635,-112,37.600.490,36.843.723,0.14,670.00
6/5/2026,15:33:34,29151,16792,-908,804,513,686,-124,37.600.490,36.843.723,0.14,669.90
6/5/2026,15:33:34,29211,17004,-704,836,478,683,-96,37.600.490,36.843.723,0.14,669.90
6/5/2026,15:33:34,29277,16796,-480,792,459,799,-123,37.600.490,36.843.723,0.14,669.90
6/5/2026,15:33:34,29341,17216,-568,1124,475,688,-128,37.600.490,36.843.723,0.14,669.90
6/5/2026,15:33:34,29415,16872,-476,536,461,624,-99,37.600.490,36.843.723,0.14,669.90
6/5/2026,15:33:34,29475,17212,-632,1008,477,734,-62,37.600.490,36.843.723,0.14,669.90
6/5/2026,15:33:34,29535,17160,-688,1136,449,735,-86,37.600.490,36.843.723,0.14,669.90
6/5/2026,15:33:34,29595,17120,-440,872,462,724,-64,37.600.490,36.843.723,0.14,669.90
6/5/2026,15:33:34,29661,17236,-484,860,473,774,-106,37.600.490,36.843.723,0.14,669.90
6/5/2026,15:33:34,29725,17016,-372,628,486,769,-50,37.600.490,36.843.723,0.14,669.90
6/5/2026,15:33:34,29785,16788,-396,832,422,674,-121,37.600.490,36.843.723,0.14,669.90
6/5/2026,15:33:34,29845,17108,-664,836,478,709,-134,37.600.490,36.843.723,0.14,669.90
6/5/2026,15:33:34,29905,16880,-496,788,475,720,-109,37.600.490,36.843.723,0.14,669.90
6/5/2026,15:33:34,29965,17068,-672,728,479,643,-92,37.600.490,36.843.723,0.14,669.90
6/5/2026,15:33:35,30046,16764,-504,740,475,681,-115,37.600.490,36.843.721,0.08,669.90
6/5/2026,15:33:35,30126,16768,-340,780,445,743,-98,37.600.490,36.843.721,0.08,669.90
6/5/2026,15:33:35,30186,17176,-656,776,498,732,-124,37.600.490,36.843.721,0.08,669.50
6/5/2026,15:33:35,30246,16776,-372,608,439,733,-82,37.600.490,36.843.721,0.08,669.50
6/5/2026,15:33:35,30306,17064,-708,872,481,653,-139,37.600.490,36.843.721,0.08,669.50
6/5/2026,15:33:35,30366,17040,-528,908,459,722,-53,37.600.490,36.843.721,0.08,669.50
6/5/2026,15:33:35,30432,16752,-380,840,484,696,-107,37.600.490,36.843.721,0.08,669.50
6/5/2026,15:33:35,30496,17080,-628,788,458,691,-103,37.600.490,36.843.721,0.08,669.50
6/5/2026,15:33:35,30556,16916,-476,796,494,721,-76,37.600.490,36.843.721,0.08,669.50
6/5/2026,15:33:35,30616,16948,-612,724,486,676,-107,37.600.490,36.843.721,0.08,669.50
6/5/2026,15:33:35,30676,17104,-540,900,460,704,-46,37.600.490,36.843.721,0.08,669.50
6/5/2026,15:33:35,30759,17240,-688,836,495,673,-91,37.600.490,36.843.721,0.08,669.50
6/5/2026,15:33:35,30825,16948,-492,848,486,719,-77,37.600.490,36.843.721,0.08,669.50
6/5/2026,15:33:35,30889,16876,-456,736,461,662,-98,37.600.490,36.843.721,0.08,669.50
6/5/2026,15:33:35,30949,17068,-544,916,507,708,-98,37.600.490,36.843.721,0.08,669.50
6/5/2026,15:33:35,31009,16824,-448,760,467,706,-108,37.600.490,36.843.721,0.08,669.50
6/5/2026,15:33:36,31069,17328,-632,860,464,674,-52,37.600.489,36.843.719,0.06,669.50
6/5/2026,15:33:36,31129,16836,-520,852,497,744,-86,37.600.489,36.843.719,0.06,669.50
6/5/2026,15:33:36,31193,17004,-672,864,466,687,-77,37.600.489,36.843.719,0.06,669.10
6/5/2026,15:33:36,31253,16836,-440,896,479,727,-63,37.600.489,36.843.719,0.06,669.10
6/5/2026,15:33:36,31313,17116,-576,804,478,682,-101,37.600.489,36.843.719,0.06,669.10
6/5/2026,15:33:36,31373,16952,-436,804,463,747,-88,37.600.489,36.843.719,0.06,669.10
6/5/2026,15:33:36,31433,16956,-504,860,473,677,-92,37.600.489,36.843.719,0.06,669.10
6/5/2026,15:33:36,31493,16904,-480,840,440,718,-76,37.600.489,36.843.719,0.06,669.10
6/5/2026,15:33:36,31567,16892,-364,768,479,723,-100,37.600.489,36.843.719,0.06,669.10
6/5/2026,15:33:36,31631,17164,-528,700,493,700,-85,37.600.489,36.843.719,0.06,669.10
6/5/2026,15:33:36,31691,16964,-400,644,480,704,-95,37.600.489,36.843.719,0.06,669.10
6/5/2026,15:33:36,31751,17032,-604,808,491,687,-85,37.600.489,36.843.719,0.06,669.10
6/5/2026,15:33:36,31811,16924,-480,804,503,710,-68,37.600.489,36.843.719,0.06,669.10
6/5/2026,15:33:36,31871,17064,-692,800,488,704,-97,37.600.489,36.843.719,0.06,669.10
6/5/2026,15:33:36,31937,17380,-648,484,461,691,-64,37.600.489,36.843.719,0.06,669.10
6/5/2026,15:33:36,32001,16864,-420,640,487,737,-90,37.600.489,36.843.719,0.06,669.10
6/5/2026,15:33:37,32061,17052,-572,884,487,686,-117,37.600.490,36.843.720,0.09,669.10
6/5/2026,15:33:37,32121,16872,-464,848,510,682,-78,37.600.490,36.843.720,0.09,669.10
6/5/2026,15:33:37,32195,16928,-552,788,436,700,-100,37.600.490,36.843.720,0.09,669.00
6/5/2026,15:33:37,32255,17100,-568,720,493,704,-81,37.600.490,36.843.720,0.09,669.00
6/5/2026,15:33:37,32321,16960,-384,780,455,729,-117,37.600.490,36.843.720,0.09,669.00
6/5/2026,15:33:37,32385,17128,-572,812,478,641,-113,37.600.490,36.843.720,0.09,669.00
6/5/2026,15:33:37,32445,16872,-376,856,459,688,-88,37.600.490,36.843.720,0.09,669.00
6/5/2026,15:33:37,32505,17052,-672,776,462,703,-124,37.600.490,36.843.720,0.09,669.00
6/5/2026,15:33:37,32565,16900,-584,812,450,746,-87,37.600.490,36.843.720,0.09,669.00
6/5/2026,15:33:37,32625,17020,-600,792,436,703,-87,37.600.490,36.843.720,0.09,669.00
6/5/2026,15:33:37,32691,17060,-380,772,452,733,-63,37.600.490,36.843.720,0.09,669.00
6/5/2026,15:33:37,32755,16852,-444,820,477,700,-98,37.600.490,36.843.720,0.09,669.00
6/5/2026,15:33:37,32815,17164,-868,684,464,689,-70,37.600.490,36.843.720,0.09,669.00
6/5/2026,15:33:37,32890,16820,-676,836,435,735,-88,37.600.490,36.843.720,0.09,669.00
6/5/2026,15:33:37,32950,16912,-688,1020,464,648,-93,37.600.490,36.843.720,0.09,669.00
6/5/2026,15:33:37,33010,17016,-448,736,475,725,-78,37.600.490,36.843.720,0.09,669.00
6/5/2026,15:33:38,33076,16780,-652,776,470,781,-135,37.600.490,36.843.721,0.06,669.00
6/5/2026,15:33:38,33140,17068,-624,852,463,707,-102,37.600.490,36.843.721,0.06,669.00
6/5/2026,15:33:38,33200,16952,-448,836,501,690,-123,37.600.490,36.843.721,0.06,668.80
6/5/2026,15:33:38,33260,17056,-720,940,495,678,-81,37.600.490,36.843.721,0.06,668.80
6/5/2026,15:33:38,33320,16988,-492,728,481,683,-123,37.600.490,36.843.721,0.06,668.80
6/5/2026,15:33:38,33380,17096,-600,900,449,739,-103,37.600.490,36.843.721,0.06,668.80
6/5/2026,15:33:38,33469,16936,-568,692,473,672,-77,37.600.490,36.843.721,0.06,668.80
6/5/2026,15:33:38,33549,16944,-544,704,455,687,-113,37.600.490,36.843.721,0.06,668.80
6/5/2026,15:33:38,33609,17080,-488,864,448,735,-62,37.600.490,36.843.721,0.06,668.80
6/5/2026,15:33:38,33669,17012,-624,676,485,671,-69,37.600.490,36.843.721,0.06,668.80
6/5/2026,15:33:38,33729,16924,-448,1000,457,688,-96,37.600.490,36.843.721,0.06,668.80
6/5/2026,15:33:38,33789,16984,-644,648,494,634,-99,37.600.490,36.843.721,0.06,668.80
6/5/2026,15:33:38,33855,17192,-512,860,469,692,-86,37.600.490,36.843.721,0.06,668.80
6/5/2026,15:33:38,33919,16932,-408,916,480,719,-46,37.600.490,36.843.721,0.06,668.80
6/5/2026,15:33:38,33979,17172,-588,872,486,690,-96,37.600.490,36.843.721,0.06,668.80
6/5/2026,15:33:39,34039,16828,-464,768,448,737,-91,37.600.490,36.843.721,0.07,668.80
6/5/2026,15:33:39,34099,17184,-512,820,500,683,-100,37.600.490,36.843.721,0.07,668.80
6/5/2026,15:33:39,34159,16980,-404,756,461,747,-101,37.600.490,36.843.721,0.07,668.50
6/5/2026,15:33:39,34219,17088,-568,1032,446,714,-97,37.600.490,36.843.721,0.07,668.50
6/5/2026,15:33:39,34285,16864,-480,788,445,717,-89,37.600.490,36.843.721,0.07,668.50
6/5/2026,15:33:39,34349,17048,-660,744,481,672,-105,37.600.490,36.843.721,0.07,668.50
6/5/2026,15:33:39,34409,16992,-428,884,507,746,-86,37.600.490,36.843.721,0.07,668.50
6/5/2026,15:33:39,34469,17048,-496,792,494,698,-75,37.600.490,36.843.721,0.07,668.50
6/5/2026,15:33:39,34529,16780,-356,840,491,706,-83,37.600.490,36.843.721,0.07,668.50
6/5/2026,15:33:39,34589,17104,-676,832,474,735,-114,37.600.490,36.843.721,0.07,668.50
6/5/2026,15:33:39,34655,17108,-496,792,498,711,-91,37.600.490,36.843.721,0.07,668.50
6/5/2026,15:33:39,34719,16840,-700,732,499,669,-97,37.600.490,36.843.721,0.07,668.50
6/5/2026,15:33:39,34779,17064,-384,936,502,701,-51,37.600.490,36.843.721,0.07,668.50
6/5/2026,15:33:39,34839,17016,-592,848,434,684,-117,37.600.490,36.843.721,0.07,668.50
6/5/2026,15:33:39,34899,17148,-300,980,491,759,-59,37.600.490,36.843.721,0.07,668.50
6/5/2026,15:33:39,34972,16892,-588,776,470,692,-46,37.600.490,36.843.721,0.07,668.50
6/5/2026,15:33:40,35038,17004,-728,876,519,708,-66,37.600.489,36.843.722,0.07,668.50
6/5/2026,15:33:40,35102,16904,-364,748,474,712,-115,37.600.489,36.843.722,0.07,668.50
6/5/2026,15:33:40,35162,17108,-640,688,482,721,-73,37.600.489,36.843.722,0.07,668.20
6/5/2026,15:33:40,35222,16924,-372,784,509,719,-122,37.600.489,36.843.722,0.07,668.20
6/5/2026,15:33:40,35282,16988,-496,768,492,690,-81,37.600.489,36.843.722,0.07,668.20
6/5/2026,15:33:40,35342,16808,-416,792,496,695,-78,37.600.489,36.843.722,0.07,668.20
6/5/2026,15:33:40,35408,17064,-716,732,511,724,-79,37.600.489,36.843.722,0.07,668.20
6/5/2026,15:33:40,35472,17172,-496,996,486,692,-62,37.600.489,36.843.722,0.07,668.20
6/5/2026,15:33:40,35532,17032,-692,760,471,721,-119,37.600.489,36.843.722,0.07,668.20
6/5/2026,15:33:40,35592,16992,-340,796,431,733,-119,37.600.489,36.843.722,0.07,668.20
6/5/2026,15:33:40,35652,17044,-596,772,479,727,-72,37.600.489,36.843.722,0.07,668.20
6/5/2026,15:33:40,35727,17160,-588,856,473,678,-68,37.600.489,36.843.722,0.07,668.20
6/5/2026,15:33:40,35793,16888,-472,852,487,751,-105,37.600.489,36.843.722,0.07,668.20
6/5/2026,15:33:40,35857,17028,-692,736,542,680,-98,37.600.489,36.843.722,0.07,668.20
6/5/2026,15:33:40,35917,17004,-364,952,507,741,-67,37.600.489,36.843.722,0.07,668.20
6/5/2026,15:33:40,35977,16960,-616,828,503,714,-95,37.600.489,36.843.722,0.07,668.20
6/5/2026,15:33:41,36037,16884,-408,804,476,788,-119,37.600.488,36.843.723,0.08,668.20
6/5/2026,15:33:41,36097,17056,-608,724,480,670,-115,37.600.488,36.843.723,0.08,668.20
6/5/2026,15:33:41,36186,16720,-600,728,429,728,-136,37.600.488,36.843.723,0.08,668.00
6/5/2026,15:33:41,36285,17212,-432,920,485,712,-75,37.600.488,36.843.723,0.08,668.00
6/5/2026,15:33:41,36346,16816,-608,712,496,665,-103,37.600.488,36.843.723,0.08,668.00
6/5/2026,15:33:41,36406,17020,-380,876,481,733,-77,37.600.488,36.843.723,0.08,668.00
6/5/2026,15:33:41,36466,17000,-592,700,474,671,-73,37.600.488,36.843.723,0.08,668.00
6/5/2026,15:33:41,36526,17036,-368,688,460,730,-108,37.600.488,36.843.723,0.08,668.00
6/5/2026,15:33:41,36592,16748,-680,728,488,674,-91,37.600.488,36.843.723,0.08,668.00
6/5/2026,15:33:41,36656,17020,-528,848,440,694,-92,37.600.488,36.843.723,0.08,668.00
6/5/2026,15:33:41,36716,16756,-708,604,484,659,-89,37.600.488,36.843.723,0.08,668.00
6/5/2026,15:33:41,36776,17136,-452,1048,499,748,-37,37.600.488,36.843.723,0.08,668.00
6/5/2026,15:33:41,36836,16780,-688,820,442,666,-111,37.600.488,36.843.723,0.08,668.00
6/5/2026,15:33:41,36896,17040,-420,800,464,732,-57,37.600.488,36.843.723,0.08,668.00
6/5/2026,15:33:41,36977,16956,-376,832,425,722,-92,37.600.488,36.843.723,0.08,668.00
6/5/2026,15:33:42,37041,16800,-728,672,453,649,-110,37.600.486,36.843.723,0.03,668.00
6/5/2026,15:33:42,37101,17096,-420,920,478,742,-97,37.600.486,36.843.723,0.03,668.00
6/5/2026,15:33:42,37161,17036,-688,736,491,741,-96,37.600.486,36.843.723,0.03,667.40
6/5/2026,15:33:42,37221,16960,-364,796,451,727,-135,37.600.486,36.843.723,0.03,667.40
6/5/2026,15:33:42,37281,17060,-616,888,462,679,-123,37.600.486,36.843.723,0.03,667.40
6/5/2026,15:33:42,37345,16944,-388,792,472,761,-121,37.600.486,36.843.723,0.03,667.40
6/5/2026,15:33:42,37405,17044,-616,792,505,697,-113,37.600.486,36.843.723,0.03,667.40
6/5/2026,15:33:42,37465,16844,-432,828,502,701,-113,37.600.486,36.843.723,0.03,667.40
6/5/2026,15:33:42,37525,17136,-620,860,514,655,-72,37.600.486,36.843.723,0.03,667.40
6/5/2026,15:33:42,37585,16864,-560,664,495,730,-90,37.600.486,36.843.723,0.03,667.40
6/5/2026,15:33:42,37645,17236,-548,972,480,692,-85,37.600.486,36.843.723,0.03,667.40
6/5/2026,15:33:42,37711,16896,-476,800,479,758,-89,37.600.486,36.843.723,0.03,667.40
6/5/2026,15:33:42,37788,16712,-588,628,495,718,-147,37.600.486,36.843.723,0.03,667.40
6/5/2026,15:33:42,37848,17112,-400,884,455,720,-110,37.600.486,36.843.723,0.03,667.40
6/5/2026,15:33:42,37908,16860,-628,644,487,654,-74,37.600.486,36.843.723,0.03,667.40
6/5/2026,15:33:42,37968,16964,-360,900,472,697,-62,37.600.486,36.843.723,0.03,667.40
6/5/2026,15:33:42,38028,17096,-764,764,443,710,-95,37.600.486,36.843.723,0.03,667.40
6/5/2026,15:33:43,38094,17040,-500,792,492,710,-81,37.600.486,36.843.723,0.01,667.40
6/5/2026,15:33:43,38158,16864,-648,752,518,697,-108,37.600.486,36.843.723,0.01,667.40
6/5/2026,15:33:43,38218,17000,-312,760,491,753,-105,37.600.486,36.843.723,0.01,667.40
6/5/2026,15:33:43,38278,17060,-524,692,517,723,-117,37.600.486,36.843.723,0.01,667.40
6/5/2026,15:33:43,38338,16832,-384,700,462,724,-101,37.600.486,36.843.723,0.01,667.40
6/5/2026,15:33:43,38398,17080,-552,792,459,633,-94,37.600.486,36.843.723,0.01,667.40
6/5/2026,15:33:43,38464,16900,-480,796,488,690,-85,37.600.486,36.843.723,0.01,667.40
6/5/2026,15:33:43,38528,17072,-636,876,487,673,-110,37.600.486,36.843.723,0.01,667.40
6/5/2026,15:33:43,38603,17208,-432,956,462,694,-97,37.600.486,36.843.723,0.01,667.40
6/5/2026,15:33:43,38663,16836,-624,712,447,687,-113,37.600.486,36.843.723,0.01,667.40
6/5/2026,15:33:43,38723,17068,-388,852,493,712,-50,37.600.486,36.843.723,0.01,667.40
6/5/2026,15:33:43,38783,17004,-608,768,445,691,-88,37.600.486,36.843.723,0.01,667.40
6/5/2026,15:33:43,38849,17020,-408,884,498,734,-54,37.600.486,36.843.723,0.01,667.40
6/5/2026,15:33:43,38936,17120,-500,796,488,717,-88,37.600.486,36.843.723,0.01,667.40
6/5/2026,15:33:43,38996,16856,-684,784,452,719,-113,37.600.486,36.843.723,0.01,667.40
6/5/2026,15:33:44,39056,16984,-404,824,487,719,-105,37.600.485,36.843.722,0.05,667.40
6/5/2026,15:33:44,39116,17088,-504,724,507,717,-92,37.600.485,36.843.722,0.05,667.40
6/5/2026,15:33:44,39176,16940,-448,864,484,734,-96,37.600.485,36.843.722,0.05,667.10
6/5/2026,15:33:44,39242,16964,-532,856,484,664,-92,37.600.485,36.843.722,0.05,667.10
6/5/2026,15:33:44,39306,16900,-496,732,496,687,-51,37.600.485,36.843.722,0.05,667.10
6/5/2026,15:33:44,39366,17032,-540,940,475,724,-78,37.600.485,36.843.722,0.05,667.10
6/5/2026,15:33:44,39426,16948,-636,772,456,713,-104,37.600.485,36.843.722,0.05,667.10
6/5/2026,15:33:44,39486,16980,-436,860,456,712,-117,37.600.485,36.843.722,0.05,667.10
6/5/2026,15:33:44,39546,16960,-684,696,466,693,-74,37.600.485,36.843.722,0.05,667.10
6/5/2026,15:33:44,39612,16960,-548,912,493,687,-95,37.600.485,36.843.722,0.05,667.10
6/5/2026,15:33:44,39676,16916,-652,812,453,674,-88,37.600.485,36.843.722,0.05,667.10
6/5/2026,15:33:44,39736,16964,-408,644,458,703,-95,37.600.485,36.843.722,0.05,667.10
6/5/2026,15:33:44,39796,17012,-416,880,472,726,-110,37.600.485,36.843.722,0.05,667.10
6/5/2026,15:33:44,39856,16952,-612,804,494,679,-77,37.600.485,36.843.722,0.05,667.10
6/5/2026,15:33:44,39916,16968,-328,708,472,731,-93,37.600.485,36.843.722,0.05,667.10
6/5/2026,15:33:44,39976,16992,-620,776,454,698,-96,37.600.485,36.843.722,0.05,667.10
6/5/2026,15:33:45,40042,16980,-372,804,469,692,-87,37.600.483,36.843.723,0.07,667.10
6/5/2026,15:33:45,40106,16940,-584,840,486,706,-105,37.600.483,36.843.723,0.07,667.10
6/5/2026,15:33:45,40166,16908,-472,668,478,730,-74,37.600.483,36.843.723,0.07,666.90
6/5/2026,15:33:45,40226,17052,-468,892,463,707,-94,37.600.483,36.843.723,0.07,666.90
6/5/2026,15:33:45,40286,17048,-656,792,493,689,-108,37.600.483,36.843.723,0.07,666.90
6/5/2026,15:33:45,40363,17036,-556,908,448,648,-93,37.600.483,36.843.723,0.07,666.90
6/5/2026,15:33:45,40429,17004,-524,828,501,710,-62,37.600.483,36.843.723,0.07,666.90
6/5/2026,15:33:45,40493,16988,-492,868,439,718,-99,37.600.483,36.843.723,0.07,666.90
6/5/2026,15:33:45,40567,16988,-412,792,445,726,-77,37.600.483,36.843.723,0.07,666.90
6/5/2026,15:33:45,40627,16924,-568,788,496,662,-108,37.600.483,36.843.723,0.07,666.90
6/5/2026,15:33:45,40687,17000,-536,724,487,730,-123,37.600.483,36.843.723,0.07,666.90
6/5/2026,15:33:45,40747,17068,-456,864,480,708,-102,37.600.483,36.843.723,0.07,666.90
6/5/2026,15:33:45,40813,17028,-668,832,489,658,-92,37.600.483,36.843.723,0.07,666.90
6/5/2026,15:33:45,40877,17044,-436,916,461,697,-119,37.600.483,36.843.723,0.07,666.90
6/5/2026,15:33:45,40937,16924,-632,788,456,723,-118,37.600.483,36.843.723,0.07,666.90
6/5/2026,15:33:45,40997,17008,-544,888,517,693,-110,37.600.483,36.843.723,0.07,666.90
6/5/2026,15:33:46,41057,16972,-592,880,455,693,-77,37.600.482,36.843.724,0.07,666.90
6/5/2026,15:33:46,41117,16960,-668,908,466,707,-101,37.600.482,36.843.724,0.07,666.90
6/5/2026,15:33:46,41183,17000,-492,932,481,697,-108,37.600.482,36.843.724,0.07,666.90
6/5/2026,15:33:46,41247,17008,-620,844,474,708,-94,37.600.482,36.843.724,0.07,666.90
6/5/2026,15:33:46,41307,16996,-336,820,459,746,-99,37.600.482,36.843.724,0.07,666.90
6/5/2026,15:33:46,41367,16892,-468,860,482,707,-85,37.600.482,36.843.724,0.07,666.90
6/5/2026,15:33:46,41442,17100,-464,896,453,726,-76,37.600.482,36.843.724,0.07,666.90
6/5/2026,15:33:46,41502,16976,-648,688,483,688,-71,37.600.482,36.843.724,0.07,666.90
6/5/2026,15:33:46,41568,16924,-500,784,514,678,-123,37.600.482,36.843.724,0.07,666.90
6/5/2026,15:33:46,41655,16940,-408,668,500,717,-78,37.600.482,36.843.724,0.07,666.90
6/5/2026,15:33:46,41715,16908,-420,768,494,687,-91,37.600.482,36.843.724,0.07,666.90
6/5/2026,15:33:46,41775,17048,-596,768,534,682,-85,37.600.482,36.843.724,0.07,666.90
6/5/2026,15:33:46,41835,17040,-344,824,474,727,-101,37.600.482,36.843.724,0.07,666.90
6/5/2026,15:33:46,41895,16880,-576,888,458,711,-94,37.600.482,36.843.724,0.07,666.90
6/5/2026,15:33:46,41961,17044,-840,-20,434,518,-92,37.600.482,36.843.724,0.07,666.90
6/5/2026,15:33:46,42025,16800,-604,776,472,674,-102,37.600.482,36.843.724,0.07,666.90
6/5/2026,15:33:47,42085,16896,-676,636,481,749,-109,37.600.481,36.843.724,0.03,666.90
6/5/2026,15:33:47,42145,17172,-516,808,504,708,-72,37.600.481,36.843.724,0.03,666.90
6/5/2026,15:33:47,42205,17284,-832,800,468,712,-69,37.600.481,36.843.724,0.03,666.70
6/5/2026,15:33:47,42265,17084,-524,920,439,681,-87,37.600.481,36.843.724,0.03,666.70
6/5/2026,15:33:47,42331,16964,-600,680,479,701,-84,37.600.481,36.843.724,0.03,666.70
6/5/2026,15:33:47,42395,16592,-284,884,465,750,-182,37.600.481,36.843.724,0.03,666.70
6/5/2026,15:33:47,42455,17408,-432,932,407,720,-65,37.600.481,36.843.724,0.03,666.70
6/5/2026,15:33:47,42515,17168,-576,684,516,665,-65,37.600.481,36.843.724,0.03,666.70
6/5/2026,15:33:47,42575,16872,-376,704,480,629,-125,37.600.481,36.843.724,0.03,666.70
6/5/2026,15:33:47,42635,16988,-588,880,488,741,-108,37.600.481,36.843.724,0.03,666.70
6/5/2026,15:33:47,42701,17120,-600,648,511,728,-102,37.600.481,36.843.724,0.03,666.70
6/5/2026,15:33:47,42765,16852,-548,840,488,697,-113,37.600.481,36.843.724,0.03,666.70
6/5/2026,15:33:47,42825,17036,-552,732,483,715,-108,37.600.481,36.843.724,0.03,666.70
6/5/2026,15:33:47,42885,17016,-468,724,472,729,-103,37.600.481,36.843.724,0.03,666.70
6/5/2026,15:33:47,42945,16932,-416,940,510,707,-86,37.600.481,36.843.724,0.03,666.70
6/5/2026,15:33:47,43005,16988,-580,768,497,718,-81,37.600.481,36.843.724,0.03,666.70
6/5/2026,15:33:48,43071,17000,-412,884,492,685,-75,37.600.480,36.843.724,0.03,666.70
6/5/2026,15:33:48,43135,16976,-580,704,469,681,-67,37.600.480,36.843.724,0.03,666.70
6/5/2026,15:33:48,43195,17060,-500,544,448,678,-109,37.600.480,36.843.724,0.03,666.60
6/5/2026,15:33:48,43255,16956,-504,832,485,725,-63,37.600.480,36.843.724,0.03,666.60
6/5/2026,15:33:48,43315,16832,-532,592,480,683,-144,37.600.480,36.843.724,0.03,666.60
6/5/2026,15:33:48,43389,16924,-608,868,453,716,-119,37.600.480,36.843.724,0.03,666.60
6/5/2026,15:33:48,43453,16976,-532,720,429,701,-86,37.600.480,36.843.724,0.03,666.60
6/5/2026,15:33:48,43513,17016,-488,988,512,665,-104,37.600.480,36.843.724,0.03,666.60
6/5/2026,15:33:48,43573,16908,-544,836,460,726,-78,37.600.480,36.843.724,0.03,666.60
6/5/2026,15:33:48,43633,16824,-568,780,487,757,-97,37.600.480,36.843.724,0.03,666.60
6/5/2026,15:33:48,43693,16948,-600,756,449,693,-118,37.600.480,36.843.724,0.03,666.60
6/5/2026,15:33:48,43770,16864,-296,712,461,704,-100,37.600.480,36.843.724,0.03,666.60
6/5/2026,15:33:48,43836,16976,-424,784,445,775,-64,37.600.480,36.843.724,0.03,666.60
6/5/2026,15:33:48,43900,16912,-428,696,527,745,-101,37.600.480,36.843.724,0.03,666.60
6/5/2026,15:33:48,43960,17080,-464,884,503,702,-54,37.600.480,36.843.724,0.03,666.60
6/5/2026,15:33:48,44020,16992,-672,608,467,703,-75,37.600.480,36.843.724,0.03,666.60
6/5/2026,15:33:49,44080,16976,-452,824,473,703,-95,37.600.478,36.843.724,0.03,666.60
6/5/2026,15:33:49,44140,16944,-560,708,487,698,-94,37.600.478,36.843.724,0.03,666.60
6/5/2026,15:33:49,44206,16952,-516,816,479,719,-111,37.600.478,36.843.724,0.03,666.40
6/5/2026,15:33:49,44285,16928,-652,744,451,682,-147,37.600.478,36.843.724,0.03,666.40
6/5/2026,15:33:49,44368,16896,-540,756,490,697,-129,37.600.478,36.843.724,0.03,666.40
6/5/2026,15:33:49,44428,16960,-248,792,464,709,-48,37.600.478,36.843.724,0.03,666.40
6/5/2026,15:33:49,44488,16944,-416,548,471,698,-84,37.600.478,36.843.724,0.03,666.40
6/5/2026,15:33:49,44548,16980,-688,672,473,702,-41,37.600.478,36.843.724,0.03,666.40
6/5/2026,15:33:49,44614,16992,-696,884,466,712,-98,37.600.478,36.843.724,0.03,666.40
6/5/2026,15:33:49,44678,17108,-912,888,510,704,-122,37.600.478,36.843.724,0.03,666.40
6/5/2026,15:33:49,44738,17004,-400,884,515,716,-138,37.600.478,36.843.724,0.03,666.40
6/5/2026,15:33:49,44798,16848,-336,776,483,742,-132,37.600.478,36.843.724,0.03,666.40
6/5/2026,15:33:49,44858,16952,-436,620,469,731,-118,37.600.478,36.843.724,0.03,666.40
6/5/2026,15:33:49,44918,17092,-436,904,456,684,-61,37.600.478,36.843.724,0.03,666.40
6/5/2026,15:33:49,44984,17156,-944,888,504,712,-61,37.600.478,36.843.724,0.03,666.40
6/5/2026,15:33:50,45048,17076,-592,888,496,713,-110,37.600.478,36.843.722,0.04,666.40
6/5/2026,15:33:50,45108,16960,-492,848,467,691,-121,37.600.478,36.843.722,0.04,666.40
6/5/2026,15:33:50,45168,16960,-348,836,484,702,-135,37.600.478,36.843.722,0.04,666.20
6/5/2026,15:33:50,45228,16948,-236,764,479,681,-88,37.600.478,36.843.722,0.04,666.20
6/5/2026,15:33:50,45288,17044,-576,708,460,733,-66,37.600.478,36.843.722,0.04,666.20
6/5/2026,15:33:50,45354,17116,-536,872,498,717,-65,37.600.478,36.843.722,0.04,666.20
6/5/2026,15:33:50,45418,16876,-760,836,491,715,-93,37.600.478,36.843.722,0.04,666.20
6/5/2026,15:33:50,45478,16960,-384,712,460,722,-78,37.600.478,36.843.722,0.04,666.20
6/5/2026,15:33:50,45538,17048,-324,680,458,671,-99,37.600.478,36.843.722,0.04,666.20
6/5/2026,15:33:50,45598,16932,-384,724,464,682,-116,37.600.478,36.843.722,0.04,666.20
6/5/2026,15:33:50,45658,17120,-376,1020,450,752,-66,37.600.478,36.843.722,0.04,666.20
6/5/2026,15:33:50,45718,16952,-728,772,470,663,-74,37.600.478,36.843.722,0.04,666.20
6/5/2026,15:33:50,45784,16908,-592,748,471,728,-85,37.600.478,36.843.722,0.04,666.20
6/5/2026,15:33:50,45848,16884,-632,700,459,720,-125,37.600.478,36.843.722,0.04,666.20
6/5/2026,15:33:50,45908,17096,-472,820,494,701,-69,37.600.478,36.843.722,0.04,666.20
6/5/2026,15:33:50,45968,16876,-400,780,464,644,-90,37.600.478,36.843.722,0.04,666.20
6/5/2026,15:33:50,46028,17184,-548,616,460,718,-73,37.600.478,36.843.722,0.04,666.20
6/5/2026,15:33:51,46088,16880,-536,716,481,735,-97,37.600.477,36.843.721,0.03,666.20
6/5/2026,15:33:51,46167,17040,-456,872,469,738,-81,37.600.477,36.843.721,0.03,665.90
6/5/2026,15:33:51,46231,17212,-628,868,490,704,-69,37.600.477,36.843.721,0.03,665.90
6/5/2026,15:33:51,46291,16948,-552,816,495,662,-129,37.600.477,36.843.721,0.03,665.90
6/5/2026,15:33:51,46351,16956,-320,772,468,740,-71,37.600.477,36.843.721,0.03,665.90
6/5/2026,15:33:51,46411,16940,-600,736,493,706,-91,37.600.477,36.843.721,0.03,665.90
6/5/2026,15:33:51,46471,17028,-556,784,486,713,-98,37.600.477,36.843.721,0.03,665.90
6/5/2026,15:33:51,46537,16996,-636,888,492,677,-67,37.600.477,36.843.721,0.03,665.90
6/5/2026,15:33:51,46601,16972,-608,608,465,691,-53,37.600.477,36.843.721,0.03,665.90
6/5/2026,15:33:51,46661,17024,-464,900,491,667,-64,37.600.477,36.843.721,0.03,665.90
6/5/2026,15:33:51,46721,16920,-672,824,470,686,-46,37.600.477,36.843.721,0.03,665.90
6/5/2026,15:33:51,46781,16892,-404,864,455,703,-115,37.600.477,36.843.721,0.03,665.90
6/5/2026,15:33:51,46841,17028,-604,900,464,662,-57,37.600.477,36.843.721,0.03,665.90
6/5/2026,15:33:51,46907,16900,-444,688,458,723,-86,37.600.477,36.843.721,0.03,665.90
6/5/2026,15:33:51,46971,17032,-532,776,477,674,-79,37.600.477,36.843.721,0.03,665.90
6/5/2026,15:33:52,47054,17012,-552,940,453,689,-109,37.600.474,36.843.721,0.06,665.90
6/5/2026,15:33:52,47114,16968,-736,888,474,730,-101,37.600.474,36.843.721,0.06,665.90
6/5/2026,15:33:52,47206,16948,-404,724,502,696,-83,37.600.474,36.843.721,0.06,665.50
6/5/2026,15:33:52,47266,17068,-344,960,435,729,-38,37.600.474,36.843.721,0.06,665.50
6/5/2026,15:33:52,47332,17028,-668,816,490,724,-122,37.600.474,36.843.721,0.06,665.50
6/5/2026,15:33:52,47396,17088,-508,964,472,690,-60,37.600.474,36.843.721,0.06,665.50
6/5/2026,15:33:52,47456,16976,-656,740,486,708,-95,37.600.474,36.843.721,0.06,665.50
6/5/2026,15:33:52,47516,17004,-488,812,476,669,-71,37.600.474,36.843.721,0.06,665.50
6/5/2026,15:33:52,47576,17080,-560,628,453,706,-117,37.600.474,36.843.721,0.06,665.50
6/5/2026,15:33:52,47636,17092,-624,684,508,689,-81,37.600.474,36.843.721,0.06,665.50
6/5/2026,15:33:52,47702,16896,-544,740,478,690,-80,37.600.474,36.843.721,0.06,665.50
6/5/2026,15:33:52,47766,16772,-676,864,473,681,-70,37.600.474,36.843.721,0.06,665.50
6/5/2026,15:33:52,47826,17024,-460,768,481,680,-97,37.600.474,36.843.721,0.06,665.50
6/5/2026,15:33:52,47886,16712,-628,676,461,683,-126,37.600.474,36.843.721,0.06,665.50
6/5/2026,15:33:52,47946,16948,-416,800,458,675,-100,37.600.474,36.843.721,0.06,665.50
6/5/2026,15:33:52,48006,16892,-472,764,484,720,-57,37.600.474,36.843.721,0.06,665.50
6/5/2026,15:33:53,48072,17140,-424,812,427,730,-68,37.600.474,36.843.720,0.01,665.50
6/5/2026,15:33:53,48136,17064,-600,960,489,657,-72,37.600.474,36.843.720,0.01,665.50
6/5/2026,15:33:53,48196,17320,-668,784,477,770,-58,37.600.474,36.843.720,0.01,665.40
6/5/2026,15:33:53,48256,16648,-612,796,465,728,-94,37.600.474,36.843.720,0.01,665.40
6/5/2026,15:33:53,48316,16712,-548,832,466,788,-63,37.600.474,36.843.720,0.01,665.40
6/5/2026,15:33:53,48376,16636,-460,1000,450,679,-97,37.600.474,36.843.720,0.01,665.40
6/5/2026,15:33:53,48442,16884,-524,1048,498,789,-64,37.600.474,36.843.720,0.01,665.40
6/5/2026,15:33:53,48506,17080,-548,1056,513,729,-32,37.600.474,36.843.720,0.01,665.40
6/5/2026,15:33:53,48566,17228,-576,1024,519,730,-12,37.600.474,36.843.720,0.01,665.40
6/5/2026,15:33:53,48626,17284,-532,1188,539,748,-59,37.600.474,36.843.720,0.01,665.40
6/5/2026,15:33:53,48686,17000,-532,1148,453,802,-95,37.600.474,36.843.720,0.01,665.40
6/5/2026,15:33:53,48746,17116,-644,1284,503,747,-79,37.600.474,36.843.720,0.01,665.40
6/5/2026,15:33:53,48812,16976,-508,1464,530,708,-103,37.600.474,36.843.720,0.01,665.40
6/5/2026,15:33:53,48889,16576,-736,1284,538,696,-107,37.600.474,36.843.720,0.01,665.40
6/5/2026,15:33:53,48949,16504,-856,1504,523,714,-104,37.600.474,36.843.720,0.01,665.40
6/5/2026,15:33:53,49009,16748,-656,1684,600,691,-66,37.600.474,36.843.720,0.01,665.40
6/5/2026,15:33:54,49069,16720,-708,1544,604,735,-87,37.600.474,36.843.718,0.02,665.40
6/5/2026,15:33:54,49129,16880,-764,1520,584,655,-86,37.600.474,36.843.718,0.02,665.40
6/5/2026,15:33:54,49194,16540,-984,1716,652,718,-117,37.600.474,36.843.718,0.02,664.90
6/5/2026,15:33:54,49258,16884,-908,1864,716,830,-57,37.600.474,36.843.718,0.02,664.90
6/5/2026,15:33:54,49318,16588,-992,1896,709,776,-54,37.600.474,36.843.718,0.02,664.90
6/5/2026,15:33:54,49378,16300,-1012,1820,781,708,-149,37.600.474,36.843.718,0.02,664.90
6/5/2026,15:33:54,49438,16472,-1048,1720,834,690,-123,37.600.474,36.843.718,0.02,664.90
6/5/2026,15:33:54,49498,16608,-716,1648,885,647,-159,37.600.474,36.843.718,0.02,664.90
6/5/2026,15:33:54,49573,17084,-1040,1900,885,736,-97,37.600.474,36.843.718,0.02,664.90
6/5/2026,15:33:54,49656,16492,-1032,1888,1013,756,-133,37.600.474,36.843.718,0.02,664.90
6/5/2026,15:33:54,49750,16848,-892,1880,1107,838,-73,37.600.474,36.843.718,0.02,664.90
6/5/2026,15:33:54,49811,17128,-1040,2092,1089,811,-21,37.600.474,36.843.718,0.02,664.90
6/5/2026,15:33:54,49871,16836,-944,2068,1161,830,-98,37.600.474,36.843.718,0.02,664.90
6/5/2026,15:33:54,49931,16548,-928,1852,1294,817,-82,37.600.474,36.843.718,0.02,664.90
6/5/2026,15:33:54,49997,17384,-1236,2172,1347,736,-104,37.600.474,36.843.718,0.02,664.90
6/5/2026,15:33:55,50076,16444,-1016,2040,1411,664,-139,37.600.475,36.843.723,0.50,664.90
6/5/2026,15:33:55,50136,16196,-732,1932,1401,702,-215,37.600.475,36.843.723,0.50,664.90
6/5/2026,15:33:55,50196,16428,-632,1656,1466,701,-116,37.600.475,36.843.723,0.50,665.10
6/5/2026,15:33:55,50256,16576,-448,1992,1408,739,-133,37.600.475,36.843.723,0.50,665.10
6/5/2026,15:33:55,50316,16392,-456,1844,1415,731,-157,37.600.475,36.843.723,0.50,665.10
6/5/2026,15:33:55,50382,17040,-536,1908,1383,717,-126,37.600.475,36.843.723,0.50,665.10
6/5/2026,15:33:55,50446,17152,-600,1812,1399,707,-151,37.600.475,36.843.723,0.50,665.10
6/5/2026,15:33:55,50506,17480,-688,1660,1423,748,-111,37.600.475,36.843.723,0.50,665.10
6/5/2026,15:33:55,50566,17084,-360,1732,1393,764,-95,37.600.475,36.843.723,0.50,665.10
6/5/2026,15:33:55,50643,16636,-12,1624,1363,774,-127,37.600.475,36.843.723,0.50,665.10
6/5/2026,15:33:55,50703,17304,-144,1700,1274,791,-73,37.600.475,36.843.723,0.50,665.10
6/5/2026,15:33:55,50769,17604,-332,1800,1267,731,-139,37.600.475,36.843.723,0.50,665.10
6/5/2026,15:33:55,50833,17784,-296,1640,1263,754,-119,37.600.475,36.843.723,0.50,665.10
6/5/2026,15:33:55,50893,17064,-76,1520,1200,685,-90,37.600.475,36.843.723,0.50,665.10
6/5/2026,15:33:55,50953,17016,-308,1404,1168,664,-74,37.600.475,36.843.723,0.50,665.10
6/5/2026,15:33:55,51013,17076,-328,1400,1106,639,-95,37.600.475,36.843.723,0.50,665.10
6/5/2026,15:33:56,51073,16812,-612,1944,1082,637,-64,37.600.476,36.843.736,1.15,665.10
6/5/2026,15:33:56,51139,16840,-128,1104,1053,807,-39,37.600.476,36.843.736,1.15,665.10
6/5/2026,15:33:56,51203,16844,-136,1648,984,681,-30,37.600.476,36.843.736,1.15,665.20
6/5/2026,15:33:56,51263,16940,-240,1640,926,710,-55,37.600.476,36.843.736,1.15,665.20
6/5/2026,15:33:56,51323,17392,88,1468,847,748,-135,37.600.476,36.843.736,1.15,665.20
6/5/2026,15:33:56,51383,16848,-124,1724,799,681,-138,37.600.476,36.843.736,1.15,665.20
6/5/2026,15:33:56,51443,17032,144,2544,801,678,-101,37.600.476,36.843.736,1.15,665.20
6/5/2026,15:33:56,51509,16652,140,2376,727,870,-153,37.600.476,36.843.736,1.15,665.20
6/5/2026,15:33:56,51573,17132,240,1868,621,746,-150,37.600.476,36.843.736,1.15,665.20
6/5/2026,15:33:56,51646,16904,88,2628,527,758,-154,37.600.476,36.843.736,1.15,665.20
6/5/2026,15:33:56,51706,17352,68,2116,477,664,-169,37.600.476,36.843.736,1.15,665.20
6/5/2026,15:33:56,51766,16732,-88,2236,467,627,-121,37.600.476,36.843.736,1.15,665.20
6/5/2026,15:33:56,51826,16624,16,3664,377,767,-117,37.600.476,36.843.736,1.15,665.20
6/5/2026,15:33:56,51892,16976,-364,3752,372,792,-53,37.600.476,36.843.736,1.15,665.20
6/5/2026,15:33:56,51956,17172,-676,3696,391,791,-152,37.600.476,36.843.736,1.15,665.20
6/5/2026,15:33:56,52016,17012,-664,3428,415,620,-176,37.600.476,36.843.736,1.15,665.20
6/5/2026,15:33:57,52076,17232,44,3296,402,695,-204,37.600.477,36.843.757,1.61,665.20
6/5/2026,15:33:57,52136,16672,352,3068,368,644,-114,37.600.477,36.843.757,1.61,665.20
6/5/2026,15:33:57,52196,16808,292,2592,348,785,-160,37.600.477,36.843.757,1.61,665.50
6/5/2026,15:33:57,52262,17448,-116,2776,245,648,-25,37.600.477,36.843.757,1.61,665.50
6/5/2026,15:33:57,52326,17540,-260,2408,229,658,-21,37.600.477,36.843.757,1.61,665.50
6/5/2026,15:33:57,52409,17136,-24,1944,232,627,-176,37.600.477,36.843.757,1.61,665.50
6/5/2026,15:33:57,52469,16280,-12,1860,155,662,-102,37.600.477,36.843.757,1.61,665.50
6/5/2026,15:33:57,52529,17168,220,1464,113,798,-158,37.600.477,36.843.757,1.61,665.50
6/5/2026,15:33:57,52589,16964,756,2644,54,636,-139,37.600.477,36.843.757,1.61,665.50
6/5/2026,15:33:57,52655,16984,320,2220,-35,773,-109,37.600.477,36.843.757,1.61,665.50
6/5/2026,15:33:57,52719,17360,108,2776,-48,639,-177,37.600.477,36.843.757,1.61,665.50
6/5/2026,15:33:57,52779,16728,420,1816,-104,847,-192,37.600.477,36.843.757,1.61,665.50
6/5/2026,15:33:57,52839,17508,-84,2584,-140,623,-97,37.600.477,36.843.757,1.61,665.50
6/5/2026,15:33:57,52914,16912,876,2124,-126,747,42,37.600.477,36.843.757,1.61,665.50
6/5/2026,15:33:57,52974,16372,156,1376,-168,498,-85,37.600.477,36.843.757,1.61,665.50
6/5/2026,15:33:57,53040,17988,-164,2000,-140,708,-286,37.600.477,36.843.757,1.61,665.50
6/5/2026,15:33:58,53104,17112,588,1812,-157,599,-97,37.600.472,36.843.782,2.54,665.50
6/5/2026,15:33:58,53164,18088,48,2772,-154,654,21,37.600.472,36.843.782,2.54,664.80
6/5/2026,15:33:58,53224,16156,280,1584,-141,797,-129,37.600.472,36.843.782,2.54,664.80
6/5/2026,15:33:58,53284,17180,-132,3168,-188,647,-184,37.600.472,36.843.782,2.54,664.80
6/5/2026,15:33:58,53344,15732,176,2236,-265,514,-84,37.600.472,36.843.782,2.54,664.80
6/5/2026,15:33:58,53410,17012,60,3328,-168,813,-112,37.600.472,36.843.782,2.54,664.80
6/5/2026,15:33:58,53474,17264,44,3156,-175,509,-219,37.600.472,36.843.782,2.54,664.80
6/5/2026,15:33:58,53534,15904,120,2524,-204,456,-165,37.600.472,36.843.782,2.54,664.80
6/5/2026,15:33:58,53594,17392,160,3276,-211,807,-150,37.600.472,36.843.782,2.54,664.80
6/5/2026,15:33:58,53654,16168,56,2360,-252,734,-107,37.600.472,36.843.782,2.54,664.80
6/5/2026,15:33:58,53714,16428,464,2736,-172,814,-207,37.600.472,36.843.782,2.54,664.80
6/5/2026,15:33:58,53780,17988,552,3080,-174,964,-9,37.600.472,36.843.782,2.54,664.80
6/5/2026,15:33:58,53844,15800,496,2492,-257,660,-182,37.600.472,36.843.782,2.54,664.80
6/5/2026,15:33:58,53904,16580,-188,3396,-218,646,-56,37.600.472,36.843.782,2.54,664.80
6/5/2026,15:33:58,53964,15740,72,2128,-129,619,-118,37.600.472,36.843.782,2.54,664.80
6/5/2026,15:33:58,54041,16828,-100,2236,-121,958,-75,37.600.472,36.843.782,2.54,664.80
6/5/2026,15:33:59,54101,17544,-136,3616,-64,528,-9,37.600.467,36.843.817,3.31,664.80
6/5/2026,15:33:59,54167,17088,-704,3736,-16,588,-250,37.600.467,36.843.817,3.31,664.60
6/5/2026,15:33:59,54231,17516,-64,3204,-9,883,1,37.600.467,36.843.817,3.31,664.60
6/5/2026,15:33:59,54291,17420,188,1788,-44,769,-166,37.600.467,36.843.817,3.31,664.60
6/5/2026,15:33:59,54351,16544,-44,3524,18,706,-350,37.600.467,36.843.817,3.31,664.60
6/5/2026,15:33:59,54425,16596,580,2016,-20,979,-5,37.600.467,36.843.817,3.31,664.60
6/5/2026,15:33:59,54485,17076,216,3052,7,876,-87,37.600.467,36.843.817,3.31,664.60
6/5/2026,15:33:59,54551,16752,-64,3224,60,546,-8,37.600.467,36.843.817,3.31,664.60
6/5/2026,15:33:59,54615,16936,-524,2244,82,483,3,37.600.467,36.843.817,3.31,664.60
6/5/2026,15:33:59,54675,16856,-416,1736,112,776,-53,37.600.467,36.843.817,3.31,664.60
6/5/2026,15:33:59,54735,18060,-384,2864,203,564,-163,37.600.467,36.843.817,3.31,664.60
6/5/2026,15:33:59,54795,17268,-672,3600,191,673,-115,37.600.467,36.843.817,3.31,664.60
6/5/2026,15:33:59,54855,17436,-328,3260,237,576,-177,37.600.467,36.843.817,3.31,664.60
6/5/2026,15:33:59,54929,16560,-28,3372,279,573,-37,37.600.467,36.843.817,3.31,664.60
6/5/2026,15:33:59,54993,17776,-344,2244,260,672,39,37.600.467,36.843.817,3.31,664.60
6/5/2026,15:34:00,55053,16508,-396,1372,296,539,-153,37.600.458,36.843.864,4.47,664.60
6/5/2026,15:34:00,55152,17392,-384,2216,252,831,-36,37.600.458,36.843.864,4.47,664.60
6/5/2026,15:34:00,55213,16984,-492,2968,301,491,-207,37.600.458,36.843.864,4.47,664.60
6/5/2026,15:34:00,55273,17744,-464,2288,297,893,-208,37.600.458,36.843.864,4.47,664.60
6/5/2026,15:34:00,55339,16308,60,2392,315,605,79,37.600.458,36.843.864,4.47,664.60
6/5/2026,15:34:00,55403,18456,156,3144,397,659,57,37.600.458,36.843.864,4.47,664.60
6/5/2026,15:34:00,55463,17808,-336,2848,377,656,-64,37.600.458,36.843.864,4.47,664.60
6/5/2026,15:34:00,55523,15976,-96,1688,344,670,-42,37.600.458,36.843.864,4.47,664.60
6/5/2026,15:34:00,55583,16960,-880,3072,391,545,4,37.600.458,36.843.864,4.47,664.60
6/5/2026,15:34:00,55643,16052,-1004,2196,443,641,-63,37.600.458,36.843.864,4.47,664.60
6/5/2026,15:34:00,55707,17408,-600,2728,447,673,-46,37.600.458,36.843.864,4.47,664.60
6/5/2026,15:34:00,55782,17648,-684,2204,401,631,-71,37.600.458,36.843.864,4.47,664.60
6/5/2026,15:34:00,55842,15748,-324,2280,447,480,-147,37.600.458,36.843.864,4.47,664.60
6/5/2026,15:34:00,55902,16296,-280,1924,460,944,-7,37.600.458,36.843.864,4.47,664.60
6/5/2026,15:34:00,55962,16012,-780,1848,473,402,-54,37.600.458,36.843.864,4.47,664.60
6/5/2026,15:34:00,56022,17064,-604,2812,500,602,35,37.600.458,36.843.864,4.47,664.60
6/5/2026,15:34:01,56088,16752,-504,892,500,712,-80,37.600.448,36.843.922,5.50,664.60
6/5/2026,15:34:01,56152,16852,-684,988,546,621,-64,37.600.448,36.843.922,5.50,664.60
6/5/2026,15:34:01,56212,17404,-680,1640,506,713,-209,37.600.448,36.843.922,5.50,664.70
6/5/2026,15:34:01,56272,16952,96,2372,547,542,-12,37.600.448,36.843.922,5.50,664.70
6/5/2026,15:34:01,56332,17344,-236,1668,558,530,-94,37.600.448,36.843.922,5.50,664.70
6/5/2026,15:34:01,56392,16616,-348,1408,574,824,-109,37.600.448,36.843.922,5.50,664.70
6/5/2026,15:34:01,56458,18668,-224,1912,507,663,36,37.600.448,36.843.922,5.50,664.70
6/5/2026,15:34:01,56522,17044,-344,1468,515,557,-115,37.600.448,36.843.922,5.50,664.70
6/5/2026,15:34:01,56582,16236,-428,1468,543,771,-43,37.600.448,36.843.922,5.50,664.70
6/5/2026,15:34:01,56642,17608,-572,1824,555,562,-44,37.600.448,36.843.922,5.50,664.70
6/5/2026,15:34:01,56702,16756,-832,1396,536,712,-163,37.600.448,36.843.922,5.50,664.70
6/5/2026,15:34:01,56762,16216,-356,2388,560,431,-39,37.600.448,36.843.922,5.50,664.70
6/5/2026,15:34:01,56828,16068,4,768,549,747,-103,37.600.448,36.843.922,5.50,664.70
6/5/2026,15:34:01,56892,19728,-712,2584,564,551,-32,37.600.448,36.843.922,5.50,664.70
6/5/2026,15:34:01,56952,16184,-648,780,509,651,-191,37.600.448,36.843.922,5.50,664.70
6/5/2026,15:34:01,57012,17960,-248,2204,493,667,28,37.600.448,36.843.922,5.50,664.70
6/5/2026,15:34:02,57072,17604,-936,1368,511,601,-138,37.600.436,36.843.987,5.86,664.70
6/5/2026,15:34:02,57132,15976,-152,396,539,708,-207,37.600.436,36.843.987,5.86,664.70
6/5/2026,15:34:02,57211,17072,184,2108,476,717,-82,37.600.436,36.843.987,5.86,664.70
6/5/2026,15:34:02,57275,17376,-1004,1116,498,820,-93,37.600.436,36.843.987,5.86,664.70
6/5/2026,15:34:02,57335,17988,-396,2064,504,832,-93,37.600.436,36.843.987,5.86,664.70
6/5/2026,15:34:02,57395,16396,-448,1632,473,863,-74,37.600.436,36.843.987,5.86,664.70
6/5/2026,15:34:02,57472,16680,-812,2520,539,556,-169,37.600.436,36.843.987,5.86,664.70
6/5/2026,15:34:02,57532,17208,-316,1548,567,653,-162,37.600.436,36.843.987,5.86,664.70
6/5/2026,15:34:02,57598,17420,-100,1184,509,607,-93,37.600.436,36.843.987,5.86,664.70
6/5/2026,15:34:02,57662,18032,-292,1640,559,588,-32,37.600.436,36.843.987,5.86,664.70
6/5/2026,15:34:02,57722,16752,-828,2192,492,610,-252,37.600.436,36.843.987,5.86,664.70
6/5/2026,15:34:02,57782,15820,-188,896,516,1013,-150,37.600.436,36.843.987,5.86,664.70
6/5/2026,15:34:02,57865,17152,-324,1496,539,689,-240,37.600.436,36.843.987,5.86,664.70
6/5/2026,15:34:02,57925,16888,-348,1964,512,762,-109,37.600.436,36.843.987,5.86,664.70
6/5/2026,15:34:02,57991,17640,-444,2340,460,745,-121,37.600.436,36.843.987,5.86,664.70
6/5/2026,15:34:03,58055,16844,-524,2124,533,701,-253,37.600.423,36.844.056,06.09,664.70
6/5/2026,15:34:03,58115,16488,-36,752,505,731,-115,37.600.423,36.844.056,06.09,664.70
6/5/2026,15:34:03,58175,16988,-1164,1704,564,791,-56,37.600.423,36.844.056,06.09,665.00
6/5/2026,15:34:03,58235,17024,-468,1460,546,866,-295,37.600.423,36.844.056,06.09,665.00
6/5/2026,15:34:03,58295,16244,32,1196,463,816,-151,37.600.423,36.844.056,06.09,665.00
6/5/2026,15:34:03,58361,19196,72,1888,493,855,-16,37.600.423,36.844.056,06.09,665.00
6/5/2026,15:34:03,58425,17760,488,2308,543,766,-83,37.600.423,36.844.056,06.09,665.00
6/5/2026,15:34:03,58485,16608,64,2176,536,556,-35,37.600.423,36.844.056,06.09,665.00
6/5/2026,15:34:03,58545,17208,-164,1936,503,638,64,37.600.423,36.844.056,06.09,665.00
6/5/2026,15:34:03,58620,16968,-436,1092,425,898,-138,37.600.423,36.844.056,06.09,665.00
6/5/2026,15:34:03,58680,16108,-140,1524,434,796,-10,37.600.423,36.844.056,06.09,665.00
6/5/2026,15:34:03,58746,15916,-444,1612,462,416,-148,37.600.423,36.844.056,06.09,665.00
6/5/2026,15:34:03,58810,18708,96,2692,466,612,54,37.600.423,36.844.056,06.09,665.00
6/5/2026,15:34:03,58870,16888,-556,1300,419,309,-135,37.600.423,36.844.056,06.09,665.00
6/5/2026,15:34:03,58930,17112,-32,828,418,726,-105,37.600.423,36.844.056,06.09,665.00
6/5/2026,15:34:03,58990,17004,-360,928,397,838,-65,37.600.423,36.844.056,06.09,665.00
6/5/2026,15:34:04,59050,16524,-132,1644,435,644,-74,37.600.414,36.844.131,6.72,665.00
6/5/2026,15:34:04,59116,16476,152,1800,407,776,-79,37.600.414,36.844.131,6.72,665.00
6/5/2026,15:34:04,59180,16540,-112,1820,415,680,-71,37.600.414,36.844.131,6.72,665.40
6/5/2026,15:34:04,59240,17000,-36,1420,481,810,-130,37.600.414,36.844.131,6.72,665.40
6/5/2026,15:34:04,59300,16988,-1004,2040,428,644,13,37.600.414,36.844.131,6.72,665.40
6/5/2026,15:34:04,59360,15832,-908,1404,421,504,-227,37.600.414,36.844.131,6.72,665.40
6/5/2026,15:34:04,59420,17204,-68,1320,419,772,-52,37.600.414,36.844.131,6.72,665.40
6/5/2026,15:34:04,59486,16520,-396,1000,436,823,-95,37.600.414,36.844.131,6.72,665.40
6/5/2026,15:34:04,59550,17260,-896,2076,478,723,-122,37.600.414,36.844.131,6.72,665.40
6/5/2026,15:34:04,59610,16376,636,2424,453,747,-88,37.600.414,36.844.131,6.72,665.40
6/5/2026,15:34:04,59670,17424,-308,2520,441,424,-33,37.600.414,36.844.131,6.72,665.40
6/5/2026,15:34:04,59730,17128,-488,1892,503,717,-74,37.600.414,36.844.131,6.72,665.40
6/5/2026,15:34:04,59790,17812,-276,2748,477,526,62,37.600.414,36.844.131,6.72,665.40
6/5/2026,15:34:04,59856,17964,-680,1556,528,652,-36,37.600.414,36.844.131,6.72,665.40
6/5/2026,15:34:04,59933,16104,-1036,2140,455,559,-53,37.600.414,36.844.131,6.72,665.40
6/5/2026,15:34:04,59993,15948,-712,1232,457,725,-13,37.600.414,36.844.131,6.72,665.40
6/5/2026,15:34:05,60053,17992,-532,2128,547,826,-30,37.600.401,36.844.209,7.11,665.40
6/5/2026,15:34:05,60113,16812,-180,1488,534,696,-102,37.600.401,36.844.209,7.11,665.40
6/5/2026,15:34:05,60173,17796,-716,1700,445,571,-38,37.600.401,36.844.209,7.11,665.70
6/5/2026,15:34:05,60239,17592,-476,1956,522,703,-174,37.600.401,36.844.209,7.11,665.70
6/5/2026,15:34:05,60303,16896,-324,636,548,745,-73,37.600.401,36.844.209,7.11,665.70
6/5/2026,15:34:05,60363,17464,-332,932,540,679,-46,37.600.401,36.844.209,7.11,665.70
6/5/2026,15:34:05,60423,16736,-596,668,511,1061,-103,37.600.401,36.844.209,7.11,665.70
6/5/2026,15:34:05,60483,15800,-628,40,503,641,-236,37.600.401,36.844.209,7.11,665.70
6/5/2026,15:34:05,60566,16360,-36,576,503,711,-45,37.600.401,36.844.209,7.11,665.70
6/5/2026,15:34:05,60626,18652,-1088,1088,569,832,-88,37.600.401,36.844.209,7.11,665.70
6/5/2026,15:34:05,60688,17528,196,1828,501,836,-6,37.600.401,36.844.209,7.11,665.70
6/5/2026,15:34:05,60752,16236,-652,928,492,714,32,37.600.401,36.844.209,7.11,665.70
6/5/2026,15:34:05,60812,17104,-928,468,531,558,-134,37.600.401,36.844.209,7.11,665.70
6/5/2026,15:34:05,60872,18284,-164,1640,543,1002,167,37.600.401,36.844.209,7.11,665.70
6/5/2026,15:34:05,60988,17012,-844,520,536,588,-84,37.600.401,36.844.209,7.11,665.70
6/5/2026,15:34:05,61049,16484,-492,392,560,933,40,37.600.401,36.844.209,7.11,665.70
6/5/2026,15:34:06,61115,18484,-1012,1468,569,329,-75,37.600.387,36.844.288,7.25,665.70
6/5/2026,15:34:06,61179,16672,-560,608,598,601,-122,37.600.387,36.844.288,7.25,665.70
6/5/2026,15:34:06,61239,15188,-832,-24,588,617,-209,37.600.387,36.844.288,7.25,665.80
6/5/2026,15:34:06,61299,16992,-608,-1272,611,765,-72,37.600.387,36.844.288,7.25,665.80
6/5/2026,15:34:06,61359,17064,-376,732,632,532,-163,37.600.387,36.844.288,7.25,665.80
6/5/2026,15:34:06,61419,18008,-812,1256,595,616,-50,37.600.387,36.844.288,7.25,665.80
6/5/2026,15:34:06,61499,16856,-728,-476,575,815,-38,37.600.387,36.844.288,7.25,665.80
6/5/2026,15:34:06,61563,17468,-268,8,546,617,7,37.600.387,36.844.288,7.25,665.80
6/5/2026,15:34:06,61623,17156,-900,-496,555,881,-159,37.600.387,36.844.288,7.25,665.80
6/5/2026,15:34:06,61683,18052,-700,-44,513,858,-122,37.600.387,36.844.288,7.25,665.80
6/5/2026,15:34:06,61743,16176,-360,20,524,1025,-35,37.600.387,36.844.288,7.25,665.80
6/5/2026,15:34:06,61803,16828,-212,320,558,445,-223,37.600.387,36.844.288,7.25,665.80
6/5/2026,15:34:06,61867,16376,-324,-428,574,755,-84,37.600.387,36.844.288,7.25,665.80
6/5/2026,15:34:06,61927,15968,-232,-716,568,622,-101,37.600.387,36.844.288,7.25,665.80
6/5/2026,15:34:06,61987,16704,-556,-1028,522,799,-143,37.600.387,36.844.288,7.25,665.80
6/5/2026,15:34:07,62047,16928,-252,68,539,689,-22,37.600.374,36.844.366,07.01,665.80
6/5/2026,15:34:07,62107,17168,-328,-200,525,960,-54,37.600.374,36.844.366,07.01,665.80
6/5/2026,15:34:07,62167,16596,-380,-164,514,309,-149,37.600.374,36.844.366,07.01,665.80
6/5/2026,15:34:07,62233,17580,-628,120,505,532,-72,37.600.374,36.844.366,07.01,665.80
6/5/2026,15:34:07,62297,16908,-496,84,519,638,29,37.600.374,36.844.366,07.01,665.80
6/5/2026,15:34:07,62357,18204,-768,196,528,318,-41,37.600.374,36.844.366,07.01,665.80
6/5/2026,15:34:07,62417,17360,-344,-204,526,742,-103,37.600.374,36.844.366,07.01,665.80
6/5/2026,15:34:07,62477,17324,-596,24,455,407,-1,37.600.374,36.844.366,07.01,665.80
6/5/2026,15:34:07,62537,16884,-184,-440,490,906,-163,37.600.374,36.844.366,07.01,665.80
6/5/2026,15:34:07,62603,16576,-904,-876,514,815,-163,37.600.374,36.844.366,07.01,665.80
6/5/2026,15:34:07,62667,16304,-468,-308,486,421,-149,37.600.374,36.844.366,07.01,665.80
6/5/2026,15:34:07,62727,18140,-516,1096,575,352,-95,37.600.374,36.844.366,07.01,665.80
6/5/2026,15:34:07,62801,17304,-480,-144,507,738,-77,37.600.374,36.844.366,07.01,665.80
6/5/2026,15:34:07,62861,17116,-300,80,485,717,-123,37.600.374,36.844.366,07.01,665.80
6/5/2026,15:34:07,62921,16952,-220,-776,479,897,-77,37.600.374,36.844.366,07.01,665.80
6/5/2026,15:34:07,62987,16380,-488,-532,499,518,-93,37.600.374,36.844.366,07.01,665.80
6/5/2026,15:34:08,63051,17184,-632,-212,472,663,-229,37.600.361,36.844.437,6.20,665.80
6/5/2026,15:34:08,63111,17004,-492,236,420,639,-179,37.600.361,36.844.437,6.20,665.80
6/5/2026,15:34:08,63171,15948,-332,196,529,584,-178,37.600.361,36.844.437,6.20,665.80
6/5/2026,15:34:08,63231,16992,-176,-304,555,432,9,37.600.361,36.844.437,6.20,665.70
6/5/2026,15:34:08,63314,17268,-92,104,478,765,-61,37.600.361,36.844.437,6.20,665.70
6/5/2026,15:34:08,63380,16644,-848,-60,459,643,-74,37.600.361,36.844.437,6.20,665.70
6/5/2026,15:34:08,63444,17208,300,484,482,820,9,37.600.361,36.844.437,6.20,665.70
6/5/2026,15:34:08,63504,16552,-816,-592,541,644,-180,37.600.361,36.844.437,6.20,665.70
6/5/2026,15:34:08,63564,18032,-572,628,513,199,-140,37.600.361,36.844.437,6.20,665.70
6/5/2026,15:34:08,63624,15984,-324,536,486,761,-26,37.600.361,36.844.437,6.20,665.70
6/5/2026,15:34:08,63684,17572,-212,-212,503,625,-120,37.600.361,36.844.437,6.20,665.70
6/5/2026,15:34:08,63750,17604,-120,168,528,672,-114,37.600.361,36.844.437,6.20,665.70
6/5/2026,15:34:08,63814,17940,-436,820,483,410,53,37.600.361,36.844.437,6.20,665.70
6/5/2026,15:34:08,63874,16856,200,56,493,781,-45,37.600.361,36.844.437,6.20,665.70
6/5/2026,15:34:08,63934,17628,-92,-12,510,890,80,37.600.361,36.844.437,6.20,665.70
6/5/2026,15:34:08,63994,17056,-796,-768,502,1119,39,37.600.361,36.844.437,6.20,665.70
6/5/2026,15:34:09,64054,16624,-596,-96,477,568,-114,37.600.352,36.844.499,5.48,665.70
6/5/2026,15:34:09,64120,16740,-368,404,493,648,-48,37.600.352,36.844.499,5.48,665.70
6/5/2026,15:34:09,64184,17704,-372,516,568,779,-182,37.600.352,36.844.499,5.48,666.00
6/5/2026,15:34:09,64244,16904,-448,-100,549,615,8,37.600.352,36.844.499,5.48,666.00
6/5/2026,15:34:09,64304,16852,-488,-432,533,685,-152,37.600.352,36.844.499,5.48,666.00
6/5/2026,15:34:09,64396,17152,-264,-264,467,760,-58,37.600.352,36.844.499,5.48,666.00
6/5/2026,15:34:09,64456,16424,-464,-620,462,782,-113,37.600.352,36.844.499,5.48,666.00
6/5/2026,15:34:09,64522,16768,-724,-272,423,636,-220,37.600.352,36.844.499,5.48,666.00
6/5/2026,15:34:09,64586,16540,-308,352,396,435,-272,37.600.352,36.844.499,5.48,666.00
6/5/2026,15:34:09,64646,16132,200,-536,301,820,-190,37.600.352,36.844.499,5.48,666.00
6/5/2026,15:34:09,64706,16780,936,-900,279,931,-122,37.600.352,36.844.499,5.48,666.00
6/5/2026,15:34:09,64766,16752,504,-416,169,894,-177,37.600.352,36.844.499,5.48,666.00
6/5/2026,15:34:09,64826,17184,948,-316,48,743,-219,37.600.352,36.844.499,5.48,666.00
6/5/2026,15:34:09,64892,17224,1464,-272,-177,720,-46,37.600.352,36.844.499,5.48,666.00
6/5/2026,15:34:09,64956,16316,1152,-292,-289,647,-295,37.600.352,36.844.499,5.48,666.00
6/5/2026,15:34:09,65016,16572,1592,-260,-495,747,-298,37.600.352,36.844.499,5.48,666.00
6/5/2026,15:34:10,65076,17524,2080,-28,-748,405,-292,37.600.345,36.844.553,4.80,666.00
6/5/2026,15:34:10,65136,17424,2640,-776,-955,548,-475,37.600.345,36.844.553,4.80,666.00
6/5/2026,15:34:10,65196,15840,3432,-1272,-1151,551,-416,37.600.345,36.844.553,4.80,666.70
6/5/2026,15:34:10,65262,16636,3724,-1772,-1393,778,-347,37.600.345,36.844.553,4.80,666.70
6/5/2026,15:34:10,65326,16572,3788,-924,-1631,760,-182,37.600.345,36.844.553,4.80,666.70
6/5/2026,15:34:10,65386,17828,2944,-612,-1848,949,-259,37.600.345,36.844.553,4.80,666.70
6/5/2026,15:34:10,65446,17324,3716,-1472,-2084,785,-332,37.600.345,36.844.553,4.80,666.70
6/5/2026,15:34:10,65506,16512,3588,-1296,-2296,765,-506,37.600.345,36.844.553,4.80,666.70
6/5/2026,15:34:10,65580,17524,4520,-1264,-2642,1078,-242,37.600.345,36.844.553,4.80,666.70
6/5/2026,15:34:10,65646,16672,4044,-564,-2829,666,-300,37.600.345,36.844.553,4.80,666.70
6/5/2026,15:34:10,65710,15812,4956,-684,-3006,488,-209,37.600.345,36.844.553,4.80,666.70
6/5/2026,15:34:10,65770,18472,4044,-840,-3185,457,92,37.600.345,36.844.553,4.80,666.70
6/5/2026,15:34:10,65830,15448,4820,-1980,-3304,411,-317,37.600.345,36.844.553,4.80,666.70
6/5/2026,15:34:10,65890,16288,4484,-1124,-3373,350,88,37.600.345,36.844.553,4.80,666.70
6/5/2026,15:34:10,65950,16564,3888,-504,-3484,370,319,37.600.345,36.844.553,4.80,666.70
6/5/2026,15:34:10,66039,14916,3812,0,-3578,450,757,37.600.345,36.844.553,4.80,666.70
6/5/2026,15:34:11,66103,16084,3292,-92,-3526,365,511,37.600.319,36.844.593,04.02,666.70
6/5/2026,15:34:11,66163,16552,2400,-1356,-3389,200,382,37.600.319,36.844.593,04.02,666.70
6/5/2026,15:34:11,66223,15620,2968,-456,-3505,267,765,37.600.319,36.844.593,04.02,665.50
6/5/2026,15:34:11,66283,19632,1040,-988,-3535,81,357,37.600.319,36.844.593,04.02,665.50
6/5/2026,15:34:11,66343,17700,1512,420,-3401,582,284,37.600.319,36.844.593,04.02,665.50
6/5/2026,15:34:11,66409,19700,-744,-1248,-3383,115,-272,37.600.319,36.844.593,04.02,665.50
6/5/2026,15:34:11,66473,18588,1612,-2868,-3224,702,-1014,37.600.319,36.844.593,04.02,665.50
6/5/2026,15:34:11,66533,15988,4504,-1368,-3265,1089,-238,37.600.319,36.844.593,04.02,665.50
6/5/2026,15:34:11,66593,17180,1908,-2124,-3099,753,201,37.600.319,36.844.593,04.02,665.50
6/5/2026,15:34:11,66653,17380,2864,-512,-3179,770,-484,37.600.319,36.844.593,04.02,665.50
6/5/2026,15:34:11,66719,14120,2932,-896,-3336,1597,28,37.600.319,36.844.593,04.02,665.50
6/5/2026,15:34:11,66783,14512,1552,-272,-3304,1596,694,37.600.319,36.844.593,04.02,665.50
6/5/2026,15:34:11,66843,13556,2204,-1368,-3211,1331,-352,37.600.319,36.844.593,04.02,665.50
6/5/2026,15:34:11,66903,14644,2632,-472,-3265,2109,701,37.600.319,36.844.593,04.02,665.50
6/5/2026,15:34:11,66963,15028,1208,-1584,-3359,1146,99,37.600.319,36.844.593,04.02,665.50
6/5/2026,15:34:11,67023,18260,732,2472,-3397,217,-371,37.600.319,36.844.593,04.02,665.50
6/5/2026,15:34:12,67089,18140,1476,820,-3232,-167,-728,37.600.288,36.844.616,3.61,665.50
6/5/2026,15:34:12,67153,15956,1564,344,-3095,-131,-665,37.600.288,36.844.616,3.61,665.50
6/5/2026,15:34:12,67228,15976,3260,-1280,-2953,-256,-204,37.600.288,36.844.616,3.61,664.60
6/5/2026,15:34:12,67288,15836,4400,-1904,-2890,-825,563,37.600.288,36.844.616,3.61,664.60
6/5/2026,15:34:12,67348,18592,1316,-1160,-2960,-287,38,37.600.288,36.844.616,3.61,664.60
6/5/2026,15:34:12,67408,16924,800,-704,-3075,-91,-17,37.600.288,36.844.616,3.61,664.60
6/5/2026,15:34:12,67474,16256,1204,252,-3110,219,-287,37.600.288,36.844.616,3.61,664.60
6/5/2026,15:34:12,67538,15976,1100,328,-2783,-76,-698,37.600.288,36.844.616,3.61,664.60
6/5/2026,15:34:12,67598,15248,2196,48,-2629,107,-588,37.600.288,36.844.616,3.61,664.60
6/5/2026,15:34:12,67658,17224,2780,-432,-2695,-132,-275,37.600.288,36.844.616,3.61,664.60
6/5/2026,15:34:12,67718,16176,2352,-488,-2629,-284,-158,37.600.288,36.844.616,3.61,664.60
6/5/2026,15:34:12,67795,16892,1680,-128,-2522,-306,-129,37.600.288,36.844.616,3.61,664.60
6/5/2026,15:34:12,67859,16392,1104,-352,-2451,124,-180,37.600.288,36.844.616,3.61,664.60
6/5/2026,15:34:12,67919,17524,284,-4,-2325,336,-363,37.600.288,36.844.616,3.61,664.60
6/5/2026,15:34:12,67979,18752,792,76,-2218,480,-598,37.600.288,36.844.616,3.61,664.60
6/5/2026,15:34:12,68039,15404,1760,-1472,-2027,302,-872,37.600.288,36.844.616,3.61,664.60
6/5/2026,15:34:13,68099,17036,1644,-460,-2006,609,-990,37.600.257,36.844.622,3.35,664.60
6/5/2026,15:34:13,68159,15772,2316,-856,-1908,597,-857,37.600.257,36.844.622,3.35,664.60
6/5/2026,15:34:13,68225,15004,3904,740,-1802,120,-304,37.600.257,36.844.622,3.35,664.40
6/5/2026,15:34:13,68289,16536,2504,-264,-1584,794,196,37.600.257,36.844.622,3.35,664.40
6/5/2026,15:34:13,68363,17768,1696,-912,-1421,306,237,37.600.257,36.844.622,3.35,664.40
6/5/2026,15:34:13,68423,15436,308,-1124,-1437,-18,-287,37.600.257,36.844.622,3.35,664.40
6/5/2026,15:34:13,68483,15328,228,-1892,-1415,781,-687,37.600.257,36.844.622,3.35,664.40
6/5/2026,15:34:13,68549,15964,248,72,-1206,384,-745,37.600.257,36.844.622,3.35,664.40
6/5/2026,15:34:13,68613,14848,1364,-996,-884,287,-716,37.600.257,36.844.622,3.35,664.40
6/5/2026,15:34:13,68673,14456,3064,-104,-683,-92,-226,37.600.257,36.844.622,3.35,664.40
6/5/2026,15:34:13,68756,17492,1676,-456,-474,-24,247,37.600.257,36.844.622,3.35,664.40
6/5/2026,15:34:13,68816,15948,-676,-1900,-346,91,-45,37.600.257,36.844.622,3.35,664.40
6/5/2026,15:34:13,68876,18112,-1396,56,-247,698,-255,37.600.257,36.844.622,3.35,664.40
6/5/2026,15:34:13,68942,17432,-332,428,-20,280,-269,37.600.257,36.844.622,3.35,664.40
6/5/2026,15:34:13,69006,17444,1540,-1372,94,450,-355,37.600.257,36.844.622,3.35,664.40
6/5/2026,15:34:14,69066,19124,1508,-3352,243,941,-273,37.600.215,36.844.615,4.56,664.40
6/5/2026,15:34:14,69126,19904,3156,-1956,324,1168,179,37.600.215,36.844.615,4.56,664.40
6/5/2026,15:34:14,69186,16548,2584,-2132,289,2143,679,37.600.215,36.844.615,4.56,663.70
6/5/2026,15:34:14,69246,15440,1752,-1108,276,1641,342,37.600.215,36.844.615,4.56,663.70
6/5/2026,15:34:14,69312,16104,344,-1500,130,1165,-83,37.600.215,36.844.615,4.56,663.70
6/5/2026,15:34:14,69376,15364,-100,-2048,-90,831,-577,37.600.215,36.844.615,4.56,663.70
6/5/2026,15:34:14,69436,16736,2580,-576,-109,1198,-417,37.600.215,36.844.615,4.56,663.70
6/5/2026,15:34:14,69496,17072,2716,-308,90,922,13,37.600.215,36.844.615,4.56,663.70
6/5/2026,15:34:14,69556,16852,2160,-520,105,408,29,37.600.215,36.844.615,4.56,663.70
6/5/2026,15:34:14,69616,15200,1952,16,33,169,381,37.600.215,36.844.615,4.56,663.70
6/5/2026,15:34:14,69682,14896,2164,-1204,-39,-27,580,37.600.215,36.844.615,4.56,663.70
6/5/2026,15:34:14,69746,15648,1308,-1064,-92,264,295,37.600.215,36.844.615,4.56,663.70
6/5/2026,15:34:14,69806,16132,800,56,-156,257,144,37.600.215,36.844.615,4.56,663.70
6/5/2026,15:34:14,69866,17748,336,-760,-40,-339,-125,37.600.215,36.844.615,4.56,663.70
6/5/2026,15:34:14,69926,18088,276,-756,32,-163,-313,37.600.215,36.844.615,4.56,663.70
6/5/2026,15:34:14,69986,18244,1632,-2364,98,393,-308,37.600.215,36.844.615,4.56,663.70
6/5/2026,15:34:15,70067,17088,1628,-1756,6,279,-10,37.600.171,36.844.613,4.51,663.70
6/5/2026,15:34:15,70131,15848,1440,-860,44,335,-269,37.600.171,36.844.613,4.51,663.70
6/5/2026,15:34:15,70191,15672,2188,-2396,9,1292,-48,37.600.171,36.844.613,4.51,662.90
6/5/2026,15:34:15,70251,18256,2508,-1240,66,1161,432,37.600.171,36.844.613,4.51,662.90
6/5/2026,15:34:15,70311,17972,1152,-632,67,1029,170,37.600.171,36.844.613,4.51,662.90
6/5/2026,15:34:15,70371,16136,648,276,-46,563,-279,37.600.171,36.844.613,4.51,662.90
6/5/2026,15:34:15,70437,14668,1804,-192,-67,615,-161,37.600.171,36.844.613,4.51,662.90
6/5/2026,15:34:15,70501,17080,1696,-304,77,439,-80,37.600.171,36.844.613,4.51,662.90
6/5/2026,15:34:15,70561,15632,2040,-1764,142,245,-185,37.600.171,36.844.613,4.51,662.90
6/5/2026,15:34:15,70621,16500,1500,148,142,319,92,37.600.171,36.844.613,4.51,662.90
6/5/2026,15:34:15,70681,18364,2296,452,87,383,541,37.600.171,36.844.613,4.51,662.90
6/5/2026,15:34:15,70741,21316,-224,28,217,573,765,37.600.171,36.844.613,4.51,662.90
6/5/2026,15:34:15,70807,19356,688,548,100,991,395,37.600.171,36.844.613,4.51,662.90
6/5/2026,15:34:15,70871,14476,104,-1312,124,834,22,37.600.171,36.844.613,4.51,662.90
6/5/2026,15:34:15,70931,15996,84,-956,211,435,-207,37.600.171,36.844.613,4.51,662.90
6/5/2026,15:34:15,70991,16672,900,-56,309,431,-25,37.600.171,36.844.613,4.51,662.90
6/5/2026,15:34:16,71051,16184,1752,-1000,344,588,9,37.600.124,36.844.602,5.10,662.90
6/5/2026,15:34:16,71127,17508,1616,-1068,366,741,32,37.600.124,36.844.602,5.10,662.90
6/5/2026,15:34:16,71204,15272,1488,-980,296,390,334,37.600.124,36.844.602,5.10,661.90
6/5/2026,15:34:16,71270,14372,512,-3644,197,1522,453,37.600.124,36.844.602,5.10,661.90
6/5/2026,15:34:16,71334,18360,-684,1088,239,-53,439,37.600.124,36.844.602,5.10,661.90
6/5/2026,15:34:16,71394,15288,1840,348,334,415,258,37.600.124,36.844.602,5.10,661.90
6/5/2026,15:34:16,71477,12976,284,-3540,293,-27,-610,37.600.124,36.844.602,5.10,661.90
6/5/2026,15:34:16,71537,15132,-844,-2316,413,553,21,37.600.124,36.844.602,5.10,661.90
6/5/2026,15:34:16,71597,19896,2488,-3592,363,1028,-64,37.600.124,36.844.602,5.10,661.90
6/5/2026,15:34:16,71663,18296,3800,-4416,375,1181,62,37.600.124,36.844.602,5.10,661.90
6/5/2026,15:34:16,71727,12884,3340,-2292,244,1036,355,37.600.124,36.844.602,5.10,661.90
6/5/2026,15:34:16,71787,17056,1264,-3848,187,1170,297,37.600.124,36.844.602,5.10,661.90
6/5/2026,15:34:16,71847,22700,-2188,-4032,160,1232,604,37.600.124,36.844.602,5.10,661.90
6/5/2026,15:34:16,71907,17544,-1508,-1320,192,570,-53,37.600.124,36.844.602,5.10,661.90
6/5/2026,15:34:16,71973,15988,424,448,228,-90,-424,37.600.124,36.844.602,5.10,661.90
6/5/2026,15:34:16,72037,16504,1924,-1180,225,-309,-1,37.600.124,36.844.602,5.10,661.90
6/5/2026,15:34:17,72097,18572,-1244,-3912,286,873,218,37.600.066,36.844.587,6.39,661.90
6/5/2026,15:34:17,72157,18236,-608,-1356,242,747,433,37.600.066,36.844.587,6.39,661.90
6/5/2026,15:34:17,72217,15740,-692,-2140,191,875,89,37.600.066,36.844.587,6.39,661.80
6/5/2026,15:34:17,72277,16460,212,-3796,207,448,203,37.600.066,36.844.587,6.39,661.80
6/5/2026,15:34:17,72343,15548,428,-4472,235,1110,66,37.600.066,36.844.587,6.39,661.80
6/5/2026,15:34:17,72407,10828,844,-1560,211,777,329,37.600.066,36.844.587,6.39,661.80
6/5/2026,15:34:17,72467,15452,2356,-2588,198,885,-29,37.600.066,36.844.587,6.39,661.80
6/5/2026,15:34:17,72527,18788,-264,-4524,183,1234,-109,37.600.066,36.844.587,6.39,661.80
6/5/2026,15:34:17,72587,18216,924,-2476,213,1045,50,37.600.066,36.844.587,6.39,661.80
6/5/2026,15:34:17,72647,18212,-372,-504,216,527,119,37.600.066,36.844.587,6.39,661.80
6/5/2026,15:34:17,72713,16992,200,1044,105,724,-253,37.600.066,36.844.587,6.39,661.80
6/5/2026,15:34:17,72777,18312,124,796,148,672,37,37.600.066,36.844.587,6.39,661.80
6/5/2026,15:34:17,72837,15884,548,-1804,230,824,-57,37.600.066,36.844.587,6.39,661.80
6/5/2026,15:34:17,72912,15992,-332,-1252,291,747,53,37.600.066,36.844.587,6.39,661.80
6/5/2026,15:34:17,72972,17144,-104,-880,332,780,-18,37.600.066,36.844.587,6.39,661.80
6/5/2026,15:34:17,73032,16428,-464,-2292,356,1101,-82,37.600.066,36.844.587,6.39,661.80
6/5/2026,15:34:18,73098,16736,-688,-180,371,536,-90,37.600.009,36.844.561,6.73,661.80
6/5/2026,15:34:18,73162,23624,1776,1196,327,357,155,37.600.009,36.844.561,6.73,661.80
6/5/2026,15:34:18,73222,16196,92,-5028,310,1384,35,37.600.009,36.844.561,6.73,661.30
6/5/2026,15:34:18,73282,12740,1412,-372,305,317,156,37.600.009,36.844.561,6.73,661.30
6/5/2026,15:34:18,73342,20084,168,-2768,341,952,215,37.600.009,36.844.561,6.73,661.30
6/5/2026,15:34:18,73402,18344,-464,-3152,263,819,-4,37.600.009,36.844.561,6.73,661.30
6/5/2026,15:34:18,73462,18996,12,-2704,260,1160,-210,37.600.009,36.844.561,6.73,661.30
6/5/2026,15:34:18,73523,15376,1312,-1508,282,937,-10,37.600.009,36.844.561,6.73,661.30
6/5/2026,15:34:18,73587,18408,1504,-356,353,677,-39,37.600.009,36.844.561,6.73,661.30
6/5/2026,15:34:18,73647,14736,480,-5000,308,971,73,37.600.009,36.844.561,6.73,661.30
6/5/2026,15:34:18,73707,17272,564,-1828,331,719,91,37.600.009,36.844.561,6.73,661.30
6/5/2026,15:34:18,73767,19504,-36,-2228,271,641,33,37.600.009,36.844.561,6.73,661.30
6/5/2026,15:34:18,73827,18448,292,-1420,311,629,-14,37.600.009,36.844.561,6.73,661.30
6/5/2026,15:34:18,73915,19116,132,-3680,297,919,-76,37.600.009,36.844.561,6.73,661.30
6/5/2026,15:34:18,73975,18244,-48,-3052,342,975,-252,37.600.009,36.844.561,6.73,661.30
6/5/2026,15:34:19,74058,16576,-888,-1660,323,770,-83,37.599.951,36.844.533,07.06,661.30
6/5/2026,15:34:19,74159,17816,320,-2356,395,637,-144,37.599.951,36.844.533,07.06,661.30
6/5/2026,15:34:19,74220,17060,248,-1712,368,506,12,37.599.951,36.844.533,07.06,661.50
6/5/2026,15:34:19,74280,17092,-648,-2176,342,559,-159,37.599.951,36.844.533,07.06,661.50
6/5/2026,15:34:19,74346,16044,1196,-2648,318,451,-16,37.599.951,36.844.533,07.06,661.50
6/5/2026,15:34:19,74410,17160,476,-3544,379,427,12,37.599.951,36.844.533,07.06,661.50
6/5/2026,15:34:19,74470,18764,-420,-2520,439,944,-7,37.599.951,36.844.533,07.06,661.50
6/5/2026,15:34:19,74530,15992,508,-2200,413,1103,-153,37.599.951,36.844.533,07.06,661.50
6/5/2026,15:34:19,74590,17096,-116,-3004,484,1085,-187,37.599.951,36.844.533,07.06,661.50
6/5/2026,15:34:19,74656,16768,192,-2496,487,1192,-139,37.599.951,36.844.533,07.06,661.50
6/5/2026,15:34:19,74736,18100,536,-2152,494,546,-94,37.599.951,36.844.533,07.06,661.50
6/5/2026,15:34:19,74796,17308,208,-1628,539,508,111,37.599.951,36.844.533,07.06,661.50
6/5/2026,15:34:19,74856,15884,-288,-3920,443,613,-70,37.599.951,36.844.533,07.06,661.50
6/5/2026,15:34:19,74916,17008,-808,-4148,510,577,-108,37.599.951,36.844.533,07.06,661.50
6/5/2026,15:34:19,74976,16836,248,-3092,539,749,16,37.599.951,36.844.533,07.06,661.50
6/5/2026,15:34:20,75042,17784,-400,-3852,555,987,-31,37.599.888,36.844.502,7.84,661.50
6/5/2026,15:34:20,75106,16256,-552,-3788,633,569,14,37.599.888,36.844.502,7.84,661.50
6/5/2026,15:34:20,75166,16764,-552,-3664,700,743,39,37.599.888,36.844.502,7.84,661.60
6/5/2026,15:34:20,75226,15748,-552,-3468,788,695,71,37.599.888,36.844.502,7.84,661.60
6/5/2026,15:34:20,75286,16980,-816,-3164,855,864,25,37.599.888,36.844.502,7.84,661.60
6/5/2026,15:34:20,75346,16468,-1096,-3184,926,873,100,37.599.888,36.844.502,7.84,661.60
6/5/2026,15:34:20,75412,16880,-768,-2616,906,782,-138,37.599.888,36.844.502,7.84,661.60
6/5/2026,15:34:20,75476,18824,-564,-2840,846,775,-216,37.599.888,36.844.502,7.84,661.60
6/5/2026,15:34:20,75536,17312,-484,-4028,819,960,-178,37.599.888,36.844.502,7.84,661.60
6/5/2026,15:34:20,75596,16404,-460,-2616,821,716,-195,37.599.888,36.844.502,7.84,661.60
6/5/2026,15:34:20,75656,16336,124,-3148,735,751,-191,37.599.888,36.844.502,7.84,661.60
6/5/2026,15:34:20,75716,15124,-472,-2924,745,734,-156,37.599.888,36.844.502,7.84,661.60
6/5/2026,15:34:20,75782,15152,-128,-3048,786,720,-124,37.599.888,36.844.502,7.84,661.60
6/5/2026,15:34:20,75861,19496,-360,-2756,767,548,-162,37.599.888,36.844.502,7.84,661.60
6/5/2026,15:34:20,75921,15908,-116,-3288,778,777,-94,37.599.888,36.844.502,7.84,661.60
6/5/2026,15:34:20,75981,16740,-472,-2432,711,655,-106,37.599.888,36.844.502,7.84,661.60
6/5/2026,15:34:20,76041,17096,-20,-3440,723,661,-211,37.599.888,36.844.502,7.84,661.60
6/5/2026,15:34:21,76101,17584,-364,-2584,679,507,-52,37.599.827,36.844.476,7.22,661.60
6/5/2026,15:34:21,76167,15576,-556,-3304,693,733,-64,37.599.827,36.844.476,7.22,661.00
6/5/2026,15:34:21,76231,16736,-564,-2832,667,761,-122,37.599.827,36.844.476,7.22,661.00
6/5/2026,15:34:21,76291,16484,-76,-3240,723,634,-100,37.599.827,36.844.476,7.22,661.00
6/5/2026,15:34:21,76351,16764,-136,-3912,693,620,-3,37.599.827,36.844.476,7.22,661.00
6/5/2026,15:34:21,76411,16892,-1020,-3184,665,602,-170,37.599.827,36.844.476,7.22,661.00
6/5/2026,15:34:21,76471,17196,-428,-2752,681,784,-92,37.599.827,36.844.476,7.22,661.00
6/5/2026,15:34:21,76537,16144,-492,-2816,694,611,-115,37.599.827,36.844.476,7.22,661.00
6/5/2026,15:34:21,76614,15980,-592,-2044,752,667,-22,37.599.827,36.844.476,7.22,661.00
6/5/2026,15:34:21,76674,17664,-716,-3840,779,679,25,37.599.827,36.844.476,7.22,661.00
6/5/2026,15:34:21,76734,18728,-1148,-3688,810,959,-25,37.599.827,36.844.476,7.22,661.00
6/5/2026,15:34:21,76818,17936,-640,-3908,828,965,-269,37.599.827,36.844.476,7.22,661.00
6/5/2026,15:34:21,76878,16884,-572,-2892,832,1133,-134,37.599.827,36.844.476,7.22,661.00
6/5/2026,15:34:21,76944,16716,-1164,-2896,906,1033,-21,37.599.827,36.844.476,7.22,661.00
6/5/2026,15:34:21,77008,17576,-696,-932,910,912,60,37.599.827,36.844.476,7.22,661.00
6/5/2026,15:34:22,77069,15204,-808,-2112,882,629,-88,37.599.771,36.844.454,6.64,661.00
6/5/2026,15:34:22,77129,17368,-1296,-2276,862,601,-6,37.599.771,36.844.454,6.64,661.00
6/5/2026,15:34:22,77189,16820,-1432,-1324,924,421,-45,37.599.771,36.844.454,6.64,660.00
6/5/2026,15:34:22,77249,17384,-1768,-1908,917,522,-92,37.599.771,36.844.454,6.64,660.00
6/5/2026,15:34:22,77315,14480,-460,-3188,1000,734,-60,37.599.771,36.844.454,6.64,660.00
6/5/2026,15:34:22,77379,18752,-1080,-624,1019,815,123,37.599.771,36.844.454,6.64,660.00
6/5/2026,15:34:22,77439,15728,-1192,-2120,1052,866,33,37.599.771,36.844.454,6.64,660.00
6/5/2026,15:34:22,77499,18100,-1664,-1456,1073,681,-127,37.599.771,36.844.454,6.64,660.00
6/5/2026,15:34:22,77559,16284,-756,-1984,1045,906,-94,37.599.771,36.844.454,6.64,660.00
6/5/2026,15:34:22,77619,15848,-1228,-1620,1061,762,108,37.599.771,36.844.454,6.64,660.00
6/5/2026,15:34:22,77685,15404,-1100,-2216,1031,801,-64,37.599.771,36.844.454,6.64,660.00
6/5/2026,15:34:22,77749,17248,-460,-660,1032,498,97,37.599.771,36.844.454,6.64,660.00
6/5/2026,15:34:22,77809,17908,-2148,-1824,1038,651,224,37.599.771,36.844.454,6.64,660.00
6/5/2026,15:34:22,77869,16484,-2008,-2084,1053,566,-384,37.599.771,36.844.454,6.64,660.00
6/5/2026,15:34:22,77929,17036,-1304,-2076,976,607,-370,37.599.771,36.844.454,6.64,660.00
6/5/2026,15:34:22,77989,15788,-996,-1500,1000,493,-12,37.599.771,36.844.454,6.64,660.00
6/5/2026,15:34:23,78055,16648,-984,-1812,1065,525,-252,37.599.714,36.844.437,6.73,660.00
6/5/2026,15:34:23,78135,16488,-1204,-2036,978,415,-406,37.599.714,36.844.437,6.73,660.00
6/5/2026,15:34:23,78195,16300,-1012,-3148,967,388,-92,37.599.714,36.844.437,6.73,659.50
6/5/2026,15:34:23,78255,17460,-1312,-3220,882,385,-562,37.599.714,36.844.437,6.73,659.50
6/5/2026,15:34:23,78315,17416,-660,-3636,885,430,-612,37.599.714,36.844.437,6.73,659.50
6/5/2026,15:34:23,78375,16316,-508,-3968,846,524,-704,37.599.714,36.844.437,6.73,659.50
6/5/2026,15:34:23,78449,18392,-768,-2852,812,851,-514,37.599.714,36.844.437,6.73,659.50
6/5/2026,15:34:23,78513,14968,752,-3752,745,873,-234,37.599.714,36.844.437,6.73,659.50
6/5/2026,15:34:23,78573,18516,-360,-2336,790,1001,-163,37.599.714,36.844.437,6.73,659.50
6/5/2026,15:34:23,78633,18064,-316,-2292,782,952,-121,37.599.714,36.844.437,6.73,659.50
6/5/2026,15:34:23,78708,18152,-456,-2932,661,710,-298,37.599.714,36.844.437,6.73,659.50
6/5/2026,15:34:23,78774,15896,-184,-2640,654,704,-285,37.599.714,36.844.437,6.73,659.50
6/5/2026,15:34:23,78838,18820,-680,-2924,704,689,-338,37.599.714,36.844.437,6.73,659.50
6/5/2026,15:34:23,78898,18292,-404,-2268,669,745,-187,37.599.714,36.844.437,6.73,659.50
6/5/2026,15:34:23,78958,15400,116,-2080,616,404,-388,37.599.714,36.844.437,6.73,659.50
6/5/2026,15:34:23,79018,16124,476,-2892,589,587,-169,37.599.714,36.844.437,6.73,659.50
6/5/2026,15:34:24,79078,18164,-1668,-2916,654,557,-234,37.599.653,36.844.424,6.61,659.50
6/5/2026,15:34:24,79144,17712,92,-4180,591,693,-17,37.599.653,36.844.424,6.61,659.50
6/5/2026,15:34:24,79208,17276,460,-2616,529,817,3,37.599.653,36.844.424,6.61,657.90
6/5/2026,15:34:24,79268,15984,-320,-3440,474,915,-42,37.599.653,36.844.424,6.61,657.90
6/5/2026,15:34:24,79342,16364,-584,-2580,498,920,-223,37.599.653,36.844.424,6.61,657.90
6/5/2026,15:34:24,79402,16016,-40,-2320,508,820,-203,37.599.653,36.844.424,6.61,657.90
6/5/2026,15:34:24,79462,16488,564,-3520,490,1035,-420,37.599.653,36.844.424,6.61,657.90
6/5/2026,15:34:24,79551,16808,904,-3280,452,883,157,37.599.653,36.844.424,6.61,657.90
6/5/2026,15:34:24,79615,15920,996,-2368,470,491,81,37.599.653,36.844.424,6.61,657.90
6/5/2026,15:34:24,79675,16968,-648,-4124,375,900,-143,37.599.653,36.844.424,6.61,657.90
6/5/2026,15:34:24,79735,16416,-360,-2392,271,741,-186,37.599.653,36.844.424,6.61,657.90
6/5/2026,15:34:24,79795,16220,-252,-3064,319,592,-323,37.599.653,36.844.424,6.61,657.90
6/5/2026,15:34:24,79855,15964,448,-2852,323,733,-374,37.599.653,36.844.424,6.61,657.90
6/5/2026,15:34:24,79919,16736,588,-2720,302,680,-207,37.599.653,36.844.424,6.61,657.90
6/5/2026,15:34:24,79979,17660,936,-2620,272,835,-242,37.599.653,36.844.424,6.61,657.90
6/5/2026,15:34:24,80039,16672,676,-2672,211,889,-166,37.599.653,36.844.424,6.61,657.90
6/5/2026,15:34:25,80099,16780,964,-2568,129,727,-46,37.599.589,36.844.407,6.50,657.90
6/5/2026,15:34:25,80159,17960,804,-3068,141,718,8,37.599.589,36.844.407,6.50,657.90
6/5/2026,15:34:25,80219,18120,752,-2692,150,582,-115,37.599.589,36.844.407,6.50,655.40
6/5/2026,15:34:25,80285,16680,500,-2916,115,402,-122,37.599.589,36.844.407,6.50,655.40
6/5/2026,15:34:25,80349,15960,904,-2756,142,511,-188,37.599.589,36.844.407,6.50,655.40
6/5/2026,15:34:25,80409,15560,1064,-2592,70,696,-47,37.599.589,36.844.407,6.50,655.40
6/5/2026,15:34:25,80469,17748,876,-2256,90,540,-106,37.599.589,36.844.407,6.50,655.40
6/5/2026,15:34:25,80529,16708,696,-2268,134,487,-194,37.599.589,36.844.407,6.50,655.40
6/5/2026,15:34:25,80589,16692,576,-2028,157,455,-120,37.599.589,36.844.407,6.50,655.40
6/5/2026,15:34:25,80655,17712,764,-2436,141,537,-235,37.599.589,36.844.407,6.50,655.40
6/5/2026,15:34:25,80719,15248,1044,-2888,64,349,-211,37.599.589,36.844.407,6.50,655.40
6/5/2026,15:34:25,80779,16452,1120,-2764,66,555,-113,37.599.589,36.844.407,6.50,655.40
6/5/2026,15:34:25,80839,17792,900,-3228,94,721,-43,37.599.589,36.844.407,6.50,655.40
6/5/2026,15:34:25,80899,16728,904,-2732,54,743,-108,37.599.589,36.844.407,6.50,655.40
6/5/2026,15:34:25,80959,18628,952,-2468,19,755,-15,37.599.589,36.844.407,6.50,655.40
6/5/2026,15:34:25,81025,16476,1460,-4176,9,737,-51,37.599.589,36.844.407,6.50,655.40
6/5/2026,15:34:26,81089,17312,1220,-2992,29,708,38,37.599.529,36.844.394,6.43,655.40
6/5/2026,15:34:26,81149,16368,1236,-3356,62,868,57,37.599.529,36.844.394,6.43,655.40
6/5/2026,15:34:26,81209,17400,988,-3696,73,1011,267,37.599.529,36.844.394,6.43,654.10
6/5/2026,15:34:26,81269,17404,928,-4056,77,836,226,37.599.529,36.844.394,6.43,654.10
6/5/2026,15:34:26,81329,17272,1464,-3516,20,631,263,37.599.529,36.844.394,6.43,654.10
6/5/2026,15:34:26,81395,17228,624,-3312,1,570,306,37.599.529,36.844.394,6.43,654.10
6/5/2026,15:34:26,81459,14620,2244,-4316,-13,388,268,37.599.529,36.844.394,6.43,654.10
6/5/2026,15:34:26,81551,18204,976,-5508,56,1832,702,37.599.529,36.844.394,6.43,654.10
6/5/2026,15:34:26,81611,14760,1628,-3740,56,644,90,37.599.529,36.844.394,6.43,654.10
6/5/2026,15:34:26,81671,15024,-116,-5000,-35,923,150,37.599.529,36.844.394,6.43,654.10
6/5/2026,15:34:26,81731,15604,1460,-3056,18,588,38,37.599.529,36.844.394,6.43,654.10
6/5/2026,15:34:26,81797,15592,972,-3920,28,707,241,37.599.529,36.844.394,6.43,654.10
6/5/2026,15:34:26,81861,11756,1356,-6312,88,212,203,37.599.529,36.844.394,6.43,654.10
6/5/2026,15:34:26,81921,18412,872,-1716,-15,513,-11,37.599.529,36.844.394,6.43,654.10
6/5/2026,15:34:26,81981,17124,552,-5080,-18,316,29,37.599.529,36.844.394,6.43,654.10
6/5/2026,15:34:26,82041,18248,-256,-3520,-45,311,86,37.599.529,36.844.394,6.43,654.10
6/5/2026,15:34:27,82101,15548,-856,-7344,44,1042,-262,37.599.472,36.844.377,06.02,654.10
6/5/2026,15:34:27,82180,16668,140,-3244,9,1279,118,37.599.472,36.844.377,06.02,653.30
6/5/2026,15:34:27,82267,12916,1300,-4740,86,578,-156,37.599.472,36.844.377,06.02,653.30
6/5/2026,15:34:27,82327,12728,1264,-5384,80,690,-298,37.599.472,36.844.377,06.02,653.30
6/5/2026,15:34:27,82387,13804,1016,-3320,62,709,-58,37.599.472,36.844.377,06.02,653.30
6/5/2026,15:34:27,82447,16104,880,-4012,69,635,-240,37.599.472,36.844.377,06.02,653.30
6/5/2026,15:34:27,82507,16824,-592,-4364,13,1085,-94,37.599.472,36.844.377,06.02,653.30
6/5/2026,15:34:27,82573,19044,308,-1996,52,1045,-164,37.599.472,36.844.377,06.02,653.30
6/5/2026,15:34:27,82637,16696,-620,-3788,7,571,-303,37.599.472,36.844.377,06.02,653.30
6/5/2026,15:34:27,82697,20380,-720,68,-163,762,-467,37.599.472,36.844.377,06.02,653.30
6/5/2026,15:34:27,82757,15436,-192,-4636,39,382,-271,37.599.472,36.844.377,06.02,653.30
6/5/2026,15:34:27,82817,17056,1644,-2604,-5,568,-154,37.599.472,36.844.377,06.02,653.30
6/5/2026,15:34:27,82877,17836,1320,-4000,50,690,-264,37.599.472,36.844.377,06.02,653.30
6/5/2026,15:34:27,82943,16760,1720,-2984,-71,767,-38,37.599.472,36.844.377,06.02,653.30
6/5/2026,15:34:27,83007,17404,12,-4284,-55,822,-307,37.599.472,36.844.377,06.02,653.30
6/5/2026,15:34:28,83067,16644,588,-5376,14,838,-268,37.599.425,36.844.360,5.18,653.30
6/5/2026,15:34:28,83127,17008,1192,-3900,-11,929,-162,37.599.425,36.844.360,5.18,653.30
6/5/2026,15:34:28,83187,16564,864,-5440,-61,949,-373,37.599.425,36.844.360,5.18,652.10
6/5/2026,15:34:28,83247,14664,2488,-2892,-63,886,-17,37.599.425,36.844.360,5.18,652.10
6/5/2026,15:34:28,83313,17224,1052,-4304,-47,968,-181,37.599.425,36.844.360,5.18,652.10
6/5/2026,15:34:28,83377,14440,748,-4556,13,815,42,37.599.425,36.844.360,5.18,652.10
6/5/2026,15:34:28,83437,16796,700,-4396,-6,720,8,37.599.425,36.844.360,5.18,652.10
6/5/2026,15:34:28,83497,16272,1320,-3824,-51,698,-79,37.599.425,36.844.360,5.18,652.10
6/5/2026,15:34:28,83557,16208,496,-3608,-98,557,-87,37.599.425,36.844.360,5.18,652.10
6/5/2026,15:34:28,83617,17480,608,-4416,-78,628,-249,37.599.425,36.844.360,5.18,652.10
6/5/2026,15:34:28,83683,16136,-204,-6028,-42,520,-285,37.599.425,36.844.360,5.18,652.10
6/5/2026,15:34:28,83747,16496,1908,-4788,-115,785,-143,37.599.425,36.844.360,5.18,652.10
6/5/2026,15:34:28,83807,15884,1844,-4432,-116,861,124,37.599.425,36.844.360,5.18,652.10
6/5/2026,15:34:28,83867,16092,564,-3604,-111,618,-120,37.599.425,36.844.360,5.18,652.10
6/5/2026,15:34:28,83927,16092,2200,-4704,-116,625,-360,37.599.425,36.844.360,5.18,652.10
6/5/2026,15:34:28,83987,14972,1668,-5028,-191,489,242,37.599.425,36.844.360,5.18,652.10
6/5/2026,15:34:29,84053,16040,372,-3864,-113,478,74,37.599.386,36.844.343,4.52,652.10
6/5/2026,15:34:29,84117,16604,1360,-4364,-62,521,-177,37.599.386,36.844.343,4.52,652.10
6/5/2026,15:34:29,84177,16924,1168,-4888,-189,571,239,37.599.386,36.844.343,4.52,652.20
6/5/2026,15:34:29,84237,17676,96,-3888,-131,545,70,37.599.386,36.844.343,4.52,652.20
6/5/2026,15:34:29,84297,16216,-216,-4336,-79,452,-451,37.599.386,36.844.343,4.52,652.20
6/5/2026,15:34:29,84357,15988,832,-4108,-116,363,-383,37.599.386,36.844.343,4.52,652.20
6/5/2026,15:34:29,84438,17628,852,-4728,46,466,-68,37.599.386,36.844.343,4.52,652.20
6/5/2026,15:34:29,84502,15632,1444,-5472,-10,864,-314,37.599.386,36.844.343,4.52,652.20
6/5/2026,15:34:29,84562,17460,1576,-4372,-89,1084,-67,37.599.386,36.844.343,4.52,652.20
6/5/2026,15:34:29,84622,15988,1624,-4448,-74,894,-16,37.599.386,36.844.343,4.52,652.20
6/5/2026,15:34:29,84682,16128,1152,-4624,-84,812,27,37.599.386,36.844.343,4.52,652.20
6/5/2026,15:34:29,84742,15004,1988,-5024,-125,962,-85,37.599.386,36.844.343,4.52,652.20
6/5/2026,15:34:29,84808,16640,1276,-4480,-148,862,103,37.599.386,36.844.343,4.52,652.20
6/5/2026,15:34:29,84885,16184,1460,-4504,-111,697,155,37.599.386,36.844.343,4.52,652.20
6/5/2026,15:34:29,85001,17352,876,-4612,-221,1112,10,37.599.386,36.844.343,4.52,652.20
6/5/2026,15:34:30,85094,16452,1292,-3568,-238,898,177,37.599.354,36.844.324,3.45,652.20
6/5/2026,15:34:30,85155,16448,1980,-3868,-175,660,325,37.599.354,36.844.324,3.45,652.20
6/5/2026,15:34:30,85215,17084,1336,-4260,-147,684,439,37.599.354,36.844.324,3.45,651.50
6/5/2026,15:34:30,85281,17136,764,-4480,-195,758,505,37.599.354,36.844.324,3.45,651.50
6/5/2026,15:34:30,85345,17840,80,-4488,-269,795,364,37.599.354,36.844.324,3.45,651.50
6/5/2026,15:34:30,85406,16004,-48,-3764,-187,852,204,37.599.354,36.844.324,3.45,651.50
6/5/2026,15:34:30,85466,16724,524,-3472,-108,850,148,37.599.354,36.844.324,3.45,651.50
6/5/2026,15:34:30,85526,16380,452,-4460,-103,982,127,37.599.354,36.844.324,3.45,651.50
6/5/2026,15:34:30,85586,16428,752,-4204,-108,854,117,37.599.354,36.844.324,3.45,651.50
6/5/2026,15:34:30,85651,18176,244,-4292,-100,920,27,37.599.354,36.844.324,3.45,651.50
6/5/2026,15:34:30,85715,16492,908,-3912,-88,979,-44,37.599.354,36.844.324,3.45,651.50
6/5/2026,15:34:30,85775,17132,1296,-3944,-52,995,201,37.599.354,36.844.324,3.45,651.50
6/5/2026,15:34:30,85835,17236,660,-3884,2,912,238,37.599.354,36.844.324,3.45,651.50
6/5/2026,15:34:30,85895,17660,-224,-3704,-21,815,110,37.599.354,36.844.324,3.45,651.50
6/5/2026,15:34:30,85955,17028,-364,-3584,-47,893,18,37.599.354,36.844.324,3.45,651.50
6/5/2026,15:34:30,86019,16836,-236,-3432,-17,971,-3,37.599.354,36.844.324,3.45,651.50
6/5/2026,15:34:31,86079,16476,316,-3400,132,1017,-115,37.599.333,36.844.308,2.50,651.50
6/5/2026,15:34:31,86139,16320,872,-3036,144,906,-90,37.599.333,36.844.308,2.50,651.50
6/5/2026,15:34:31,86199,16944,692,-3272,88,861,18,37.599.333,36.844.308,2.50,651.70
6/5/2026,15:34:31,86259,16292,304,-3136,31,684,72,37.599.333,36.844.308,2.50,651.70
6/5/2026,15:34:31,86319,16792,144,-3500,160,567,321,37.599.333,36.844.308,2.50,651.70
6/5/2026,15:34:31,86385,16860,124,-3708,220,567,260,37.599.333,36.844.308,2.50,651.70
6/5/2026,15:34:31,86449,17600,-232,-4184,213,716,218,37.599.333,36.844.308,2.50,651.70
6/5/2026,15:34:31,86509,16720,-684,-3848,165,672,170,37.599.333,36.844.308,2.50,651.70
6/5/2026,15:34:31,86569,16992,-788,-3748,220,657,2,37.599.333,36.844.308,2.50,651.70
6/5/2026,15:34:31,86629,16436,-472,-4224,295,611,-204,37.599.333,36.844.308,2.50,651.70
6/5/2026,15:34:31,86689,17260,-728,-3976,339,636,-253,37.599.333,36.844.308,2.50,651.70
6/5/2026,15:34:31,86755,17500,172,-4208,347,609,-328,37.599.333,36.844.308,2.50,651.70
6/5/2026,15:34:31,86819,17332,632,-4328,365,770,-239,37.599.333,36.844.308,2.50,651.70
6/5/2026,15:34:31,86879,16704,708,-4760,352,768,-260,37.599.333,36.844.308,2.50,651.70
6/5/2026,15:34:31,86939,17140,316,-4752,335,775,-103,37.599.333,36.844.308,2.50,651.70
6/5/2026,15:34:31,86999,16832,992,-4580,362,810,96,37.599.333,36.844.308,2.50,651.70
6/5/2026,15:34:32,87059,16832,128,-4896,354,754,199,37.599.322,36.844.295,1.61,651.70
6/5/2026,15:34:32,87125,16972,-320,-5012,375,733,120,37.599.322,36.844.295,1.61,651.70
6/5/2026,15:34:32,87189,17040,-236,-4436,400,817,104,37.599.322,36.844.295,1.61,651.80
6/5/2026,15:34:32,87249,16780,-208,-4596,452,826,115,37.599.322,36.844.295,1.61,651.80
6/5/2026,15:34:32,87324,16744,-68,-3440,503,849,68,37.599.322,36.844.295,1.61,651.80
6/5/2026,15:34:32,87384,17028,-248,-3116,464,776,25,37.599.322,36.844.295,1.61,651.80
6/5/2026,15:34:32,87444,17376,-64,-2632,396,807,-9,37.599.322,36.844.295,1.61,651.80
6/5/2026,15:34:32,87510,16960,-156,-1740,397,824,-107,37.599.322,36.844.295,1.61,651.80
6/5/2026,15:34:32,87574,16848,-96,-1616,445,786,-100,37.599.322,36.844.295,1.61,651.80
6/5/2026,15:34:32,87634,16976,-24,-1920,478,787,-39,37.599.322,36.844.295,1.61,651.80
6/5/2026,15:34:32,87731,16800,-36,-2288,418,755,-169,37.599.322,36.844.295,1.61,651.80
6/5/2026,15:34:32,87791,17076,-96,-2380,422,737,-143,37.599.322,36.844.295,1.61,651.80
6/5/2026,15:34:32,87851,16916,-300,-2416,406,739,-173,37.599.322,36.844.295,1.61,651.80
6/5/2026,15:34:32,87917,17140,-264,-2336,478,739,-141,37.599.322,36.844.295,1.61,651.80
6/5/2026,15:34:32,87981,17168,236,-3068,465,763,-98,37.599.322,36.844.295,1.61,651.80
6/5/2026,15:34:32,88041,16944,56,-3008,461,737,-103,37.599.322,36.844.295,1.61,651.80
6/5/2026,15:34:33,88101,16892,176,-3064,398,753,-103,37.599.323,36.844.286,0.74,651.80
6/5/2026,15:34:33,88161,16304,36,-3028,428,738,-62,37.599.323,36.844.286,0.74,651.80
6/5/2026,15:34:33,88221,17200,-288,-3032,465,772,-66,37.599.323,36.844.286,0.74,652.80
6/5/2026,15:34:33,88287,16764,92,-3260,436,775,-87,37.599.323,36.844.286,0.74,652.80
6/5/2026,15:34:33,88351,16716,-80,-3232,480,739,-50,37.599.323,36.844.286,0.74,652.80
6/5/2026,15:34:33,88428,16688,-104,-3348,478,716,-161,37.599.323,36.844.286,0.74,652.80
6/5/2026,15:34:33,88488,16796,232,-3312,451,699,-91,37.599.323,36.844.286,0.74,652.80
6/5/2026,15:34:33,88548,16824,-72,-3268,479,680,-76,37.599.323,36.844.286,0.74,652.80
6/5/2026,15:34:33,88608,16724,-72,-3596,439,689,-77,37.599.323,36.844.286,0.74,652.80
6/5/2026,15:34:33,88674,17132,-52,-2396,449,734,-112,37.599.323,36.844.286,0.74,652.80
6/5/2026,15:34:33,88738,17260,-156,-928,457,718,-97,37.599.323,36.844.286,0.74,652.80
6/5/2026,15:34:33,88798,16600,112,-1096,487,733,-160,37.599.323,36.844.286,0.74,652.80
6/5/2026,15:34:33,88858,16652,-48,-1976,434,711,-105,37.599.323,36.844.286,0.74,652.80
6/5/2026,15:34:33,88918,16424,180,-2476,462,698,-117,37.599.323,36.844.286,0.74,652.80
6/5/2026,15:34:33,88978,17052,-36,-1980,477,693,-103,37.599.323,36.844.286,0.74,652.80
6/5/2026,15:34:34,89044,17184,24,-1508,485,740,-93,37.599.328,36.844.283,0.17,652.80
6/5/2026,15:34:34,89108,16640,-112,-1644,495,694,-94,37.599.328,36.844.283,0.17,652.80
6/5/2026,15:34:34,89168,16904,56,-1944,464,682,-80,37.599.328,36.844.283,0.17,653.50
6/5/2026,15:34:34,89228,16772,24,-2084,488,692,-120,37.599.328,36.844.283,0.17,653.50
6/5/2026,15:34:34,89288,17032,88,-1840,525,672,-87,37.599.328,36.844.283,0.17,653.50
6/5/2026,15:34:34,89348,16924,-84,-1912,452,746,-55,37.599.328,36.844.283,0.17,653.50
6/5/2026,15:34:34,89414,16888,-80,-1844,469,714,-89,37.599.328,36.844.283,0.17,653.50
6/5/2026,15:34:34,89478,16620,12,-1864,441,692,-47,37.599.328,36.844.283,0.17,653.50
6/5/2026,15:34:34,89538,17092,-124,-1968,506,685,-110,37.599.328,36.844.283,0.17,653.50
6/5/2026,15:34:34,89598,17028,148,-1984,495,702,-93,37.599.328,36.844.283,0.17,653.50
6/5/2026,15:34:34,89658,16892,44,-1736,448,738,-76,37.599.328,36.844.283,0.17,653.50
6/5/2026,15:34:34,89718,16828,92,-1856,458,712,-74,37.599.328,36.844.283,0.17,653.50
6/5/2026,15:34:34,89784,16956,-88,-1720,466,679,-85,37.599.328,36.844.283,0.17,653.50
6/5/2026,15:34:34,89848,17180,72,-1860,457,751,-94,37.599.328,36.844.283,0.17,653.50
6/5/2026,15:34:34,89908,16792,-80,-1928,455,738,-78,37.599.328,36.844.283,0.17,653.50
6/5/2026,15:34:34,89968,16588,100,-1712,461,724,-90,37.599.328,36.844.283,0.17,653.50
6/5/2026,15:34:34,90028,16792,-152,-1788,492,679,-62,37.599.328,36.844.283,0.17,653.50
6/5/2026,15:34:35,90088,17024,52,-1824,462,700,-92,37.599.329,36.844.284,0.05,653.50
6/5/2026,15:34:35,90169,16760,44,-1720,493,705,-102,37.599.329,36.844.284,0.05,654.30
6/5/2026,15:34:35,90233,16832,-140,-2028,510,676,-67,37.599.329,36.844.284,0.05,654.30
6/5/2026,15:34:35,90293,16856,68,-1844,487,699,-84,37.599.329,36.844.284,0.05,654.30
6/5/2026,15:34:35,90353,16852,-24,-1952,493,691,-86,37.599.329,36.844.284,0.05,654.30
6/5/2026,15:34:35,90436,16696,-88,-1932,465,676,-99,37.599.329,36.844.284,0.05,654.30
6/5/2026,15:34:35,90510,16832,-192,-1832,455,684,-93,37.599.329,36.844.284,0.05,654.30
6/5/2026,15:34:35,90576,16796,96,-1836,438,732,-92,37.599.329,36.844.284,0.05,654.30
6/5/2026,15:34:35,90640,16868,24,-1908,447,689,-80,37.599.329,36.844.284,0.05,654.30
6/5/2026,15:34:35,90700,17024,52,-1824,533,717,-87,37.599.329,36.844.284,0.05,654.30
6/5/2026,15:34:35,90760,16800,-8,-1992,505,714,-78,37.599.329,36.844.284,0.05,654.30
6/5/2026,15:34:35,90820,16952,116,-1828,484,700,-76,37.599.329,36.844.284,0.05,654.30
6/5/2026,15:34:35,90880,16960,-96,-1876,482,731,-94,37.599.329,36.844.284,0.05,654.30
6/5/2026,15:34:35,90946,16932,88,-1876,477,707,-89,37.599.329,36.844.284,0.05,654.30
6/5/2026,15:34:35,91010,16904,20,-1984,452,683,-124,37.599.329,36.844.284,0.05,654.30
6/5/2026,15:34:36,91070,16968,132,-1884,455,691,-123,37.599.333,36.844.284,0.07,654.30
6/5/2026,15:34:36,91130,16672,-16,-1892,483,707,-110,37.599.333,36.844.284,0.07,654.30
6/5/2026,15:34:36,91190,16788,316,-1944,473,654,-85,37.599.333,36.844.284,0.07,655.00
6/5/2026,15:34:36,91250,16968,-20,-1884,432,724,-110,37.599.333,36.844.284,0.07,655.00
6/5/2026,15:34:36,91316,16836,100,-1752,411,701,-99,37.599.333,36.844.284,0.07,655.00
6/5/2026,15:34:36,91380,16984,-156,-1776,493,703,-114,37.599.333,36.844.284,0.07,655.00
6/5/2026,15:34:36,91440,16752,80,-1744,472,700,-145,37.599.333,36.844.284,0.07,655.00
6/5/2026,15:34:36,91500,16980,-20,-1844,463,685,-72,37.599.333,36.844.284,0.07,655.00
6/5/2026,15:34:36,91560,16708,-124,-1856,461,680,-92,37.599.333,36.844.284,0.07,655.00
6/5/2026,15:34:36,91620,16944,76,-1828,471,685,-87,37.599.333,36.844.284,0.07,655.00
6/5/2026,15:34:36,91686,16896,28,-1808,459,719,-84,37.599.333,36.844.284,0.07,655.00
6/5/2026,15:34:36,91750,16900,60,-1936,486,715,-97,37.599.333,36.844.284,0.07,655.00
6/5/2026,15:34:36,91827,16844,-80,-1948,478,675,-69,37.599.333,36.844.284,0.07,655.00
6/5/2026,15:34:36,91887,16964,-116,-1848,431,706,-91,37.599.333,36.844.284,0.07,655.00
6/5/2026,15:34:36,91947,16788,24,-1976,446,701,-117,37.599.333,36.844.284,0.07,655.00
6/5/2026,15:34:36,92007,16836,-36,-1812,431,706,-75,37.599.333,36.844.284,0.07,655.00
6/5/2026,15:34:37,92071,16860,156,-1952,445,709,-83,37.599.333,36.844.284,0.14,655.00
6/5/2026,15:34:37,92131,16808,52,-1188,497,766,-86,37.599.333,36.844.284,0.14,655.00
6/5/2026,15:34:37,92191,16860,-72,-952,480,809,-88,37.599.333,36.844.284,0.14,655.10
6/5/2026,15:34:37,92251,16816,144,-784,490,785,-119,37.599.333,36.844.284,0.14,655.10
6/5/2026,15:34:37,92311,16916,-68,-696,527,711,-129,37.599.333,36.844.284,0.14,655.10
6/5/2026,15:34:37,92371,16764,124,-812,489,749,-75,37.599.333,36.844.284,0.14,655.10
6/5/2026,15:34:37,92437,16784,-84,-832,501,774,-95,37.599.333,36.844.284,0.14,655.10
6/5/2026,15:34:37,92501,16716,20,-780,439,750,-81,37.599.333,36.844.284,0.14,655.10
6/5/2026,15:34:37,92561,16884,-144,-1040,476,752,-42,37.599.333,36.844.284,0.14,655.10
6/5/2026,15:34:37,92621,17204,220,-1436,461,743,-91,37.599.333,36.844.284,0.14,655.10
6/5/2026,15:34:37,92681,16736,28,-1556,398,724,-33,37.599.333,36.844.284,0.14,655.10
6/5/2026,15:34:37,92741,16580,248,-1992,410,743,-68,37.599.333,36.844.284,0.14,655.10
6/5/2026,15:34:37,92807,16924,160,-2172,391,719,-25,37.599.333,36.844.284,0.14,655.10
6/5/2026,15:34:37,92871,16684,68,-2348,408,734,-2,37.599.333,36.844.284,0.14,655.10
6/5/2026,15:34:37,92931,17028,44,-2388,400,728,-12,37.599.333,36.844.284,0.14,655.10
6/5/2026,15:34:37,93006,16988,240,-1252,359,864,-136,37.599.333,36.844.284,0.14,655.10
6/5/2026,15:34:38,93066,16744,128,-528,269,875,-49,37.599.332,36.844.281,0.29,655.10
6/5/2026,15:34:38,93150,16664,80,-872,322,777,-45,37.599.332,36.844.281,0.29,655.10
6/5/2026,15:34:38,93216,16640,124,-1620,337,797,-14,37.599.332,36.844.281,0.29,655.20
6/5/2026,15:34:38,93293,16960,-40,-2188,309,781,-26,37.599.332,36.844.281,0.29,655.20
6/5/2026,15:34:38,93353,17260,-164,-2540,269,777,-60,37.599.332,36.844.281,0.29,655.20
6/5/2026,15:34:38,93413,16928,-48,-2500,244,833,-78,37.599.332,36.844.281,0.29,655.20
6/5/2026,15:34:38,93473,16840,52,-2400,305,786,-48,37.599.332,36.844.281,0.29,655.20
6/5/2026,15:34:38,93533,16964,-340,-2152,347,792,-38,37.599.332,36.844.281,0.29,655.20
6/5/2026,15:34:38,93599,16920,-164,-2292,355,750,-84,37.599.332,36.844.281,0.29,655.20
6/5/2026,15:34:38,93663,17112,-188,-2344,347,815,-130,37.599.332,36.844.281,0.29,655.20
6/5/2026,15:34:38,93723,16460,4,-1848,361,802,-124,37.599.332,36.844.281,0.29,655.20
6/5/2026,15:34:38,93783,16996,-52,-2220,415,743,-98,37.599.332,36.844.281,0.29,655.20
6/5/2026,15:34:38,93843,16852,-124,-2348,405,759,-110,37.599.332,36.844.281,0.29,655.20
6/5/2026,15:34:38,93903,16820,-52,-2344,417,731,-83,37.599.332,36.844.281,0.29,655.20
6/5/2026,15:34:38,93969,17008,-80,-2212,407,760,-74,37.599.332,36.844.281,0.29,655.20
6/5/2026,15:34:38,94033,16932,-100,-2076,426,721,-77,37.599.332,36.844.281,0.29,655.20
6/5/2026,15:34:39,94093,17000,-224,-2264,484,686,-110,37.599.331,36.844.279,0.25,655.20
6/5/2026,15:34:39,94153,16888,-164,-1940,490,700,-64,37.599.331,36.844.279,0.25,655.30
6/5/2026,15:34:39,94213,17196,-16,-1324,444,731,-119,37.599.331,36.844.279,0.25,655.30
6/5/2026,15:34:39,94273,17148,388,-1188,495,746,-145,37.599.331,36.844.279,0.25,655.30
6/5/2026,15:34:39,94339,16896,268,-1288,507,731,-153,37.599.331,36.844.279,0.25,655.30
6/5/2026,15:34:39,94403,16888,104,-976,428,770,-85,37.599.331,36.844.279,0.25,655.30
6/5/2026,15:34:39,94463,16924,-36,-1064,450,777,-84,37.599.331,36.844.279,0.25,655.30
6/5/2026,15:34:39,94523,16900,36,-1208,431,708,-102,37.599.331,36.844.279,0.25,655.30
6/5/2026,15:34:39,94583,17152,-128,-1244,402,742,-110,37.599.331,36.844.279,0.25,655.30
6/5/2026,15:34:39,94643,16720,116,-1252,408,764,-114,37.599.331,36.844.279,0.25,655.30
6/5/2026,15:34:39,94709,16960,100,-1076,418,805,-130,37.599.331,36.844.279,0.25,655.30
6/5/2026,15:34:39,94773,16728,264,-1212,433,754,-111,37.599.331,36.844.279,0.25,655.30
6/5/2026,15:34:39,94833,17096,32,-1104,414,744,-116,37.599.331,36.844.279,0.25,655.30
6/5/2026,15:34:39,94893,16816,64,-1184,397,775,-173,37.599.331,36.844.279,0.25,655.30
6/5/2026,15:34:39,94953,16768,248,-984,380,780,-127,37.599.331,36.844.279,0.25,655.30
6/5/2026,15:34:39,95013,17016,112,-1124,355,822,-140,37.599.331,36.844.279,0.25,655.30
6/5/2026,15:34:40,95079,16924,192,-824,326,803,-105,37.599.332,36.844.278,0.14,655.30
6/5/2026,15:34:40,95143,17024,92,-1308,282,766,-116,37.599.332,36.844.278,0.14,655.30
6/5/2026,15:34:40,95220,16912,-20,-1228,338,811,-98,37.599.332,36.844.278,0.14,655.30
6/5/2026,15:34:40,95280,16880,108,-1520,353,809,-112,37.599.332,36.844.278,0.14,655.30
6/5/2026,15:34:40,95340,16948,96,-1696,272,796,-95,37.599.332,36.844.278,0.14,655.30
6/5/2026,15:34:40,95400,16824,0,-2444,340,790,-81,37.599.332,36.844.278,0.14,655.30
6/5/2026,15:34:40,95466,16876,104,-2012,361,799,-100,37.599.332,36.844.278,0.14,655.30
6/5/2026,15:34:40,95530,16920,-48,-2136,383,774,-89,37.599.332,36.844.278,0.14,655.30
6/5/2026,15:34:40,95590,16816,-48,-2284,405,787,-68,37.599.332,36.844.278,0.14,655.30
6/5/2026,15:34:40,95650,17024,-148,-2468,403,723,-99,37.599.332,36.844.278,0.14,655.30
6/5/2026,15:34:40,95710,16828,-56,-2284,396,724,-97,37.599.332,36.844.278,0.14,655.30
6/5/2026,15:34:40,95770,16696,92,-2260,465,705,-63,37.599.332,36.844.278,0.14,655.30
6/5/2026,15:34:40,95874,17180,-76,-1664,451,696,-92,37.599.332,36.844.278,0.14,655.30
6/5/2026,15:34:40,95938,17136,156,-980,479,759,-128,37.599.332,36.844.278,0.14,655.30
6/5/2026,15:34:40,95998,16892,316,-664,475,697,-85,37.599.332,36.844.278,0.14,655.30
6/5/2026,15:34:41,96072,16480,104,-1432,469,667,-65,37.599.333,36.844.277,0.05,655.30
6/5/2026,15:34:41,96132,16780,-4,-1848,497,712,-98,37.599.333,36.844.277,0.05,655.30
6/5/2026,15:34:41,96192,17172,-84,-1532,464,709,-92,37.599.333,36.844.277,0.05,655.50
6/5/2026,15:34:41,96258,17108,-20,-1064,495,735,-63,37.599.333,36.844.277,0.05,655.50
6/5/2026,15:34:41,96322,16880,-92,-1084,515,729,-77,37.599.333,36.844.277,0.05,655.50
6/5/2026,15:34:41,96382,16856,4,-1460,468,661,-88,37.599.333,36.844.277,0.05,655.50
6/5/2026,15:34:41,96442,16912,92,-1556,461,688,-115,37.599.333,36.844.277,0.05,655.50
6/5/2026,15:34:41,96502,17144,76,-1464,465,728,-131,37.599.333,36.844.277,0.05,655.50
6/5/2026,15:34:41,96562,17016,136,-1292,465,655,-94,37.599.333,36.844.277,0.05,655.50
6/5/2026,15:34:41,96628,17072,32,-1408,501,732,-97,37.599.333,36.844.277,0.05,655.50
6/5/2026,15:34:41,96692,16780,96,-1576,450,688,-89,37.599.333,36.844.277,0.05,655.50
6/5/2026,15:34:41,96752,16696,12,-1292,489,673,-100,37.599.333,36.844.277,0.05,655.50
6/5/2026,15:34:41,96812,17088,-16,-1456,441,697,-68,37.599.333,36.844.277,0.05,655.50
6/5/2026,15:34:41,96872,17076,116,-1160,494,698,-138,37.599.333,36.844.277,0.05,655.50
6/5/2026,15:34:41,96932,16780,88,-1412,427,699,-72,37.599.333,36.844.277,0.05,655.50
6/5/2026,15:34:41,96992,16664,100,-1440,476,754,-72,37.599.333,36.844.277,0.05,655.50
6/5/2026,15:34:42,97058,16860,24,-1232,455,715,-78,37.599.333,36.844.277,0.04,655.50
6/5/2026,15:34:42,97122,16876,24,-1260,466,747,-81,37.599.333,36.844.277,0.04,655.50
6/5/2026,15:34:42,97182,16988,-40,-1308,486,694,-95,37.599.333,36.844.277,0.04,655.30
6/5/2026,15:34:42,97242,16796,20,-1332,455,687,-68,37.599.333,36.844.277,0.04,655.30
6/5/2026,15:34:42,97302,16780,152,-1324,488,712,-101,37.599.333,36.844.277,0.04,655.30
6/5/2026,15:34:42,97362,16900,-52,-1340,500,669,-45,37.599.333,36.844.277,0.04,655.30
6/5/2026,15:34:42,97428,17040,124,-1440,451,681,-119,37.599.333,36.844.277,0.04,655.30
6/5/2026,15:34:42,97492,17052,44,-1532,446,708,-63,37.599.333,36.844.277,0.04,655.30
6/5/2026,15:34:42,97552,16768,144,-1400,479,733,-100,37.599.333,36.844.277,0.04,655.30
6/5/2026,15:34:42,97612,16936,132,-1332,460,692,-77,37.599.333,36.844.277,0.04,655.30
6/5/2026,15:34:42,97672,16988,48,-1396,470,722,-70,37.599.333,36.844.277,0.04,655.30
6/5/2026,15:34:42,97732,16756,144,-1304,455,722,-75,37.599.333,36.844.277,0.04,655.30
6/5/2026,15:34:42,97797,16916,16,-1408,501,717,-95,37.599.333,36.844.277,0.04,655.30
6/5/2026,15:34:42,97861,16952,176,-1456,462,707,-103,37.599.333,36.844.277,0.04,655.30
6/5/2026,15:34:42,97921,17036,36,-1468,471,705,-95,37.599.333,36.844.277,0.04,655.30
6/5/2026,15:34:42,97981,16736,116,-1508,457,731,-75,37.599.333,36.844.277,0.04,655.30
6/5/2026,15:34:43,98041,17136,96,-1280,480,709,-110,37.599.333,36.844.277,0.03,655.30
6/5/2026,15:34:43,98101,17076,-148,-1568,480,736,-132,37.599.333,36.844.277,0.03,655.30
6/5/2026,15:34:43,98176,16996,28,-1344,485,657,-99,37.599.333,36.844.277,0.03,655.10
6/5/2026,15:34:43,98236,16736,-96,-1344,493,739,-80,37.599.333,36.844.277,0.03,655.10
6/5/2026,15:34:43,98296,16876,224,-1444,505,723,-91,37.599.333,36.844.277,0.03,655.10
6/5/2026,15:34:43,98356,16920,20,-1392,459,699,-77,37.599.333,36.844.277,0.03,655.10
6/5/2026,15:34:43,98439,16664,80,-1228,463,692,-85,37.599.333,36.844.277,0.03,655.10
6/5/2026,15:34:43,98499,17144,16,-1460,467,680,-97,37.599.333,36.844.277,0.03,655.10
6/5/2026,15:34:43,98565,16976,132,-1392,454,702,-72,37.599.333,36.844.277,0.03,655.10
6/5/2026,15:34:43,98681,16824,72,-1404,458,733,-83,37.599.333,36.844.277,0.03,655.10
6/5/2026,15:34:43,98757,16872,8,-1460,417,695,-95,37.599.333,36.844.277,0.03,655.10
6/5/2026,15:34:43,98831,16912,84,-1252,496,703,-108,37.599.333,36.844.277,0.03,655.10
6/5/2026,15:34:43,98891,16836,-56,-1368,458,699,-79,37.599.333,36.844.277,0.03,655.10
6/5/2026,15:34:43,98951,16848,136,-1460,495,681,-144,37.599.333,36.844.277,0.03,655.10
6/5/2026,15:34:43,99017,17124,36,-1416,472,722,-134,37.599.333,36.844.277,0.03,655.10
6/5/2026,15:34:44,99081,17028,236,-1532,469,715,-103,37.599.333,36.844.277,0.03,655.10
6/5/2026,15:34:44,99141,16844,164,-1268,435,699,-69,37.599.333,36.844.277,0.03,655.10
6/5/2026,15:34:44,99201,16888,12,-1284,489,695,-87,37.599.333,36.844.277,0.03,654.70
6/5/2026,15:34:44,99261,16820,268,-1392,494,717,-81,37.599.333,36.844.277,0.03,654.70
6/5/2026,15:34:44,99321,16976,28,-1400,459,722,-93,37.599.333,36.844.277,0.03,654.70
6/5/2026,15:34:44,99387,16736,108,-1428,508,725,-96,37.599.333,36.844.277,0.03,654.70
6/5/2026,15:34:44,99451,16952,-4,-1212,491,707,-106,37.599.333,36.844.277,0.03,654.70
6/5/2026,15:34:44,99511,16684,-64,-1332,480,727,-74,37.599.333,36.844.277,0.03,654.70
6/5/2026,15:34:44,99571,17020,132,-1448,453,746,-57,37.599.333,36.844.277,0.03,654.70
6/5/2026,15:34:44,99631,17184,-116,-1328,477,651,-108,37.599.333,36.844.277,0.03,654.70
6/5/2026,15:34:44,99691,16928,48,-1396,480,723,-77,37.599.333,36.844.277,0.03,654.70
6/5/2026,15:34:44,99757,17188,20,-1400,508,701,-82,37.599.333,36.844.277,0.03,654.70
6/5/2026,15:34:44,99821,16828,84,-1356,467,729,-104,37.599.333,36.844.277,0.03,654.70
6/5/2026,15:34:44,99881,16760,132,-1268,462,713,-66,37.599.333,36.844.277,0.03,654.70
6/5/2026,15:34:44,99941,16892,8,-1496,495,693,-104,37.599.333,36.844.277,0.03,654.70
6/5/2026,15:34:44,100001,17072,60,-1468,478,674,-137,37.599.333,36.844.277,0.03,654.70
6/5/2026,15:34:45,100061,17060,356,-604,427,723,-85,37.599.331,36.844.278,0.05,654.70
6/5/2026,15:34:45,100127,17012,60,-476,398,803,-120,37.599.331,36.844.278,0.05,654.70
6/5/2026,15:34:45,100191,17052,40,8,474,762,-165,37.599.331,36.844.278,0.05,653.90
6/5/2026,15:34:45,100251,16548,-144,-56,516,771,-116,37.599.331,36.844.278,0.05,653.90
6/5/2026,15:34:45,100311,17136,36,-380,511,764,-76,37.599.331,36.844.278,0.05,653.90
6/5/2026,15:34:45,100371,17400,148,-644,444,786,-168,37.599.331,36.844.278,0.05,653.90
6/5/2026,15:34:45,100431,16732,240,-284,380,787,-128,37.599.331,36.844.278,0.05,653.90
6/5/2026,15:34:45,100497,17016,12,28,432,848,-116,37.599.331,36.844.278,0.05,653.90
6/5/2026,15:34:45,100561,16476,112,-196,513,844,-80,37.599.331,36.844.278,0.05,653.90
6/5/2026,15:34:45,100621,17200,-132,116,522,841,-74,37.599.331,36.844.278,0.05,653.90
6/5/2026,15:34:45,100681,17020,-36,-192,458,879,-109,37.599.331,36.844.278,0.05,653.90
6/5/2026,15:34:45,100741,16928,296,-152,440,956,-127,37.599.331,36.844.278,0.05,653.90
6/5/2026,15:34:45,100801,17088,-136,80,474,876,-95,37.599.331,36.844.278,0.05,653.90
6/5/2026,15:34:45,100867,16688,436,96,514,966,-87,37.599.331,36.844.278,0.05,653.90
6/5/2026,15:34:45,100931,16876,-4,12,516,940,-26,37.599.331,36.844.278,0.05,653.90
6/5/2026,15:34:45,100991,16908,296,68,507,922,-31,37.599.331,36.844.278,0.05,653.90
6/5/2026,15:34:46,101051,17032,200,484,433,935,-14,37.599.328,36.844.276,0.30,653.90
6/5/2026,15:34:46,101111,16732,292,500,433,965,3,37.599.328,36.844.276,0.30,653.90
6/5/2026,15:34:46,101194,17476,-68,348,394,994,-44,37.599.328,36.844.276,0.30,653.20
6/5/2026,15:34:46,101260,17156,-348,292,387,982,-169,37.599.328,36.844.276,0.30,653.20
6/5/2026,15:34:46,101324,17132,-400,356,424,1051,-263,37.599.328,36.844.276,0.30,653.20
6/5/2026,15:34:46,101384,17164,124,648,428,997,-420,37.599.328,36.844.276,0.30,653.20
6/5/2026,15:34:46,101444,16904,164,428,332,1054,-456,37.599.328,36.844.276,0.30,653.20
6/5/2026,15:34:46,101504,16956,572,824,301,939,-602,37.599.328,36.844.276,0.30,653.20
6/5/2026,15:34:46,101577,16636,616,940,340,934,-405,37.599.328,36.844.276,0.30,653.20
6/5/2026,15:34:46,101658,16336,1504,508,329,789,-380,37.599.328,36.844.276,0.30,653.20
6/5/2026,15:34:46,101722,16268,1300,1216,140,697,-307,37.599.328,36.844.276,0.30,653.20
6/5/2026,15:34:46,101782,16236,1220,1076,33,683,-206,37.599.328,36.844.276,0.30,653.20
6/5/2026,15:34:46,101842,16680,920,1012,35,690,-38,37.599.328,36.844.276,0.30,653.20
6/5/2026,15:34:46,101902,16584,1188,452,57,726,342,37.599.328,36.844.276,0.30,653.20
6/5/2026,15:34:46,101962,16500,1912,592,83,750,628,37.599.328,36.844.276,0.30,653.20
6/5/2026,15:34:46,102036,17844,1132,-440,-172,885,662,37.599.328,36.844.276,0.30,653.20
6/5/2026,15:34:47,102116,17804,-912,116,-235,1030,415,37.599.320,36.844.268,0.97,653.20
6/5/2026,15:34:47,102176,17664,-1756,796,-129,1118,188,37.599.320,36.844.268,0.97,652.70
6/5/2026,15:34:47,102236,17780,-1980,536,120,1010,-85,37.599.320,36.844.268,0.97,652.70
6/5/2026,15:34:47,102296,17332,-912,492,165,1045,-388,37.599.320,36.844.268,0.97,652.70
6/5/2026,15:34:47,102356,16776,308,508,96,910,-443,37.599.320,36.844.268,0.97,652.70
6/5/2026,15:34:47,102422,16700,1004,376,74,806,-398,37.599.320,36.844.268,0.97,652.70
6/5/2026,15:34:47,102486,18328,748,-416,24,857,-353,37.599.320,36.844.268,0.97,652.70
6/5/2026,15:34:47,102546,17324,-44,-36,173,892,-90,37.599.320,36.844.268,0.97,652.70
6/5/2026,15:34:47,102606,18728,-76,-12,242,993,235,37.599.320,36.844.268,0.97,652.70
6/5/2026,15:34:47,102666,17716,240,740,352,1103,250,37.599.320,36.844.268,0.97,652.70
6/5/2026,15:34:47,102726,16884,-448,776,302,1039,14,37.599.320,36.844.268,0.97,652.70
6/5/2026,15:34:47,102792,15908,-228,1352,253,795,-108,37.599.320,36.844.268,0.97,652.70
6/5/2026,15:34:47,102856,16424,-640,672,330,640,-102,37.599.320,36.844.268,0.97,652.70
6/5/2026,15:34:47,102916,17112,-404,1024,397,713,-175,37.599.320,36.844.268,0.97,652.70
6/5/2026,15:34:47,102976,17180,-408,1516,443,707,-459,37.599.320,36.844.268,0.97,652.70
6/5/2026,15:34:47,103036,16300,-192,1600,327,1039,-647,37.599.320,36.844.268,0.97,652.70
6/5/2026,15:34:48,103096,16884,116,2560,278,1011,-587,37.599.311,36.844.255,1.58,652.70
6/5/2026,15:34:48,103162,17008,328,3124,343,1028,-661,37.599.311,36.844.255,1.58,652.70
6/5/2026,15:34:48,103226,16196,1152,2576,478,1306,-636,37.599.311,36.844.255,1.58,652.60
6/5/2026,15:34:48,103286,16220,1812,3356,505,1108,-173,37.599.311,36.844.255,1.58,652.60
6/5/2026,15:34:48,103346,15228,2896,2764,506,1050,310,37.599.311,36.844.255,1.58,652.60
6/5/2026,15:34:48,103406,17344,1268,2592,437,1050,547,37.599.311,36.844.255,1.58,652.60
6/5/2026,15:34:48,103466,17400,-36,2276,282,522,427,37.599.311,36.844.255,1.58,652.60
6/5/2026,15:34:48,103532,17328,-1628,2304,220,195,155,37.599.311,36.844.255,1.58,652.60
6/5/2026,15:34:48,103596,18152,-1632,1584,365,49,-387,37.599.311,36.844.255,1.58,652.60
6/5/2026,15:34:48,103656,19292,-632,1756,519,80,-617,37.599.311,36.844.255,1.58,652.60
6/5/2026,15:34:48,103716,16324,372,-780,522,-320,-513,37.599.311,36.844.255,1.58,652.60
6/5/2026,15:34:48,103776,16648,1120,1252,555,-271,-588,37.599.311,36.844.255,1.58,652.60
6/5/2026,15:34:48,103836,16056,1696,-144,397,192,-364,37.599.311,36.844.255,1.58,652.60
6/5/2026,15:34:48,103925,16068,404,252,332,472,-239,37.599.311,36.844.255,1.58,652.60
6/5/2026,15:34:48,103989,17616,164,572,415,474,-244,37.599.311,36.844.255,1.58,652.60
6/5/2026,15:34:49,104049,17364,-280,292,484,393,-377,37.599.293,36.844.236,2.54,652.60
6/5/2026,15:34:49,104109,17048,232,580,463,317,-460,37.599.293,36.844.236,2.54,652.60
6/5/2026,15:34:49,104169,16104,1144,132,441,326,-397,37.599.293,36.844.236,2.54,652.40
6/5/2026,15:34:49,104229,16556,1380,560,386,354,-159,37.599.293,36.844.236,2.54,652.40
6/5/2026,15:34:49,104306,16376,1544,-472,431,525,-95,37.599.293,36.844.236,2.54,652.40
6/5/2026,15:34:49,104366,17128,1024,-392,335,610,92,37.599.293,36.844.236,2.54,652.40
6/5/2026,15:34:49,104426,15376,144,-8,311,518,145,37.599.293,36.844.236,2.54,652.40
6/5/2026,15:34:49,104501,17292,224,-716,342,466,-42,37.599.293,36.844.236,2.54,652.40
6/5/2026,15:34:49,104561,16084,572,-2096,347,434,-209,37.599.293,36.844.236,2.54,652.40
6/5/2026,15:34:49,104621,16732,1676,-976,345,549,79,37.599.293,36.844.236,2.54,652.40
6/5/2026,15:34:49,104687,16912,868,-1412,382,493,166,37.599.293,36.844.236,2.54,652.40
6/5/2026,15:34:49,104751,15840,904,-1176,378,437,69,37.599.293,36.844.236,2.54,652.40
6/5/2026,15:34:49,104811,16460,-476,-640,366,285,-42,37.599.293,36.844.236,2.54,652.40
6/5/2026,15:34:49,104871,16996,-356,-224,428,385,-220,37.599.293,36.844.236,2.54,652.40
6/5/2026,15:34:49,104931,17084,636,-516,481,510,-311,37.599.293,36.844.236,2.54,652.40
6/5/2026,15:34:49,104991,17620,676,-576,533,464,-179,37.599.293,36.844.236,2.54,652.40
6/5/2026,15:34:50,105057,17644,648,984,454,275,-242,37.599.273,36.844.212,03.09,652.40
6/5/2026,15:34:50,105121,15592,60,140,495,223,-405,37.599.273,36.844.212,03.09,652.40
6/5/2026,15:34:50,105181,15600,380,-2596,449,627,-243,37.599.273,36.844.212,03.09,652.20
6/5/2026,15:34:50,105241,16296,276,-148,499,284,-407,37.599.273,36.844.212,03.09,652.20
